time,magx,magy,magz,gyrx,gyry,gyrz,accx,accy,accz
0,3.53,-25.66,-37.89,-0.1,0.04,0,-0.06,-0.06,1.14
0.1,3.44,-26,-37.8,-0.05,0.01,0,-0.05,-0.07,1.28
0.2,3.02,-27.54,-37.39,0,0,0,-0.05,-0.07,1.21
0.3,2.86,-26.93,-37.83,0.05,-0.02,0,-0.05,-0.06,1.01
0.4,2.67,-26.17,-38.39,0.08,-0.04,0,-0.05,-0.04,0.89
0.5,2.8,-26.54,-38.03,0.09,-0.04,0,-0.03,-0.01,0.83
0.6,2.85,-26.69,-37.03,0.07,-0.02,0,-0.03,0,0.81
0.7,2.85,-25.34,-36.03,0.03,-0.01,0,-0.02,0.01,0.79
0.8,2.74,-25.46,-35.03,-0.01,0,0,-0.01,0.01,0.86
0.9,1.99,-26.52,-34.03,-0.05,0.02,0,-0.01,0,0.87
1,2.39,-26.25,-33.03,-0.07,0.03,0,-0.03,0,0.81
1.1,3.02,-25.83,-32.03,-0.07,0.03,0,-0.04,-0.01,0.83
1.2,4.03,-26.17,-31.03,-0.05,0.02,0,-0.02,-0.01,0.88
1.3,4.56,-26.35,-30.03,-0.02,0.01,0,-0.02,-0.01,0.87
1.4,3.6,-27.94,-29.03,0.01,0,0,-0.04,-0.03,0.91
1.5,3.5,-28.02,-28.03,0.05,-0.02,0,-0.06,-0.05,1.06
1.6,3.02,-27.54,-27.03,0.06,-0.03,0,-0.05,-0.07,1.16
1.7,3.07,-27.49,-26.03,0.06,-0.03,0,-0.06,-0.07,1.14
1.8,3.19,-27.37,-25.03,0.04,-0.02,0,-0.05,-0.05,1.03
1.9,3.91,-27.48,-24.03,0.01,0,0,-0.04,-0.03,0.91
2,4.39,-27.54,-23.03,-0.02,0.01,0,-0.03,0,0.88
2.1,3.64,-26.5,-22.03,-0.05,0.02,0,-0.03,0.01,0.84
2.2,3.54,-26.35,-21.03,-0.06,0.03,0,-0.03,0,0.8
2.3,4.73,-26.52,-20.03,-0.06,0.03,0,-0.03,-0.01,0.84
2.4,4.15,-26.71,-19.03,-0.03,0.02,0,-0.03,-0.01,0.86
2.5,2.67,-27.2,-18.03,0,0,0,-0.03,-0.01,0.83
2.6,3.33,-27.11,-17.03,0.04,-0.01,0,-0.03,0,0.82
2.7,3.87,-27.03,-16.03,0.06,-0.02,0,-0.02,0,0.86
2.8,3.31,-26.75,-15.03,0.06,-0.03,0,-0.03,-0.01,0.93
2.9,3.19,-26.69,-14.03,0.05,-0.02,0,-0.05,-0.03,1.01
3,2.85,-26,-13.03,0.02,-0.01,0,-0.05,-0.05,1.08
3.1,2.92,-26.08,-12.03,-0.02,0.01,0,-0.05,-0.06,1.1
3.2,3.19,-26.35,-11.03,-0.05,0.02,0,-0.05,-0.06,1.08
3.3,2.68,-25.67,-10.03,-0.06,0.03,0,-0.04,-0.04,0.96
3.4,2.16,-24.98,-9.03,-0.05,0.02,0,-0.04,-0.02,0.87
3.5,3.6,-25.89,-8.03,-0.03,0.01,0,-0.03,0,0.85
3.6,4.04,-26.17,-7.03,0,0,0,-0.03,0.01,0.86
3.7,2.85,-25.66,-6.03,0.03,-0.01,0,-0.02,0,0.86
3.8,3.02,-25.78,-5.03,0.05,-0.02,0,-0.03,-0.01,0.87
3.9,3.87,-26.35,-4.03,0.05,-0.02,0,-0.03,-0.01,0.87
4,3.87,-26.79,-3.03,0.03,-0.01,0,-0.03,-0.01,0.85
4.1,3.87,-27.37,-2.03,0.01,0,0,-0.03,-0.01,0.84
4.2,3.63,-27.13,-1.03,-0.02,0.01,0,-0.04,-0.01,0.91
4.3,3.53,-27.03,-0.03,-0.03,0.02,0,-0.04,-0.03,1.02
4.4,2.86,-27.37,0.97,-0.04,0.02,0,-0.05,-0.05,1.05
4.5,2.88,-27.15,1.97,-0.03,0.02,0,-0.05,-0.06,1.03
4.6,3.19,-25.32,2.97,-0.02,0.01,0,-0.05,-0.05,1.02
4.7,2.86,-26.03,3.97,0.01,0,0,-0.04,-0.03,0.97
4.8,2.33,-27.2,4.97,0.03,-0.01,0,-0.04,-0.01,0.89
4.9,2.55,-26.09,5.97,0.03,-0.02,0,-0.03,0,0.85
5,2.67,-25.49,6.97,0.03,-0.01,0,-0.02,0,0.84
5.1,3.93,-26.75,7.97,0.02,-0.01,0,-0.03,-0.01,0.86
5.2,3.99,-26.84,8.97,0.01,0,0,-0.03,-0.02,0.86
5.3,3.02,-26.52,9.97,-0.01,0,0,-0.03,-0.02,0.85
5.4,2.91,-26.63,10.97,-0.02,0.01,0,-0.04,-0.01,0.87
5.5,2.67,-26.86,11.97,-0.03,0.01,0,-0.04,-0.02,0.97
5.6,3.69,-27.06,12.97,-0.02,0.01,0,-0.04,-0.03,1.03
5.7,4.39,-27.2,13.97,-0.01,0.01,0,-0.04,-0.05,1.02
5.8,5.42,-27.35,14.97,0,0,0,-0.05,-0.05,1
5.9,5.58,-27.37,15.97,0.01,0,0,-0.05,-0.04,0.97
6,2.85,-28.06,16.97,0.02,-0.01,0,-0.04,-0.02,0.92
6.1,3.12,-27.69,17.97,0.02,-0.01,0,-0.04,0,0.86
6.2,3.87,-26.69,18.97,0.02,-0.01,0,-0.03,0,0.86
6.3,3.5,-26.5,19.97,0.01,0,0,-0.02,0,0.87
6.4,3.19,-26.35,20.97,0,0,0,-0.03,-0.01,0.88
6.5,3.88,-27.04,21.97,-0.01,0,0,-0.03,-0.02,0.87
6.6,4.04,-27.2,22.97,-0.02,0.01,0,-0.04,-0.02,0.91
6.7,3.19,-28.06,23.97,-0.02,0.01,0,-0.04,-0.03,0.97
6.8,3.15,-27.59,24.97,-0.01,0.01,0,-0.04,-0.03,0.99
6.9,3.02,-25.83,25.97,0,0,0,-0.04,-0.03,0.98
7,3.31,-26.51,26.97,0,0,0,-0.04,-0.04,0.97
7.1,3.53,-27.03,27.97,0.01,0,0,-0.04,-0.04,0.95
7.2,3.92,-27.42,28.97,0.02,-0.01,0,-0.04,-0.03,0.91
7.3,4.04,-27.54,29.97,0.02,-0.01,0,-0.03,-0.01,0.89
7.4,2.5,-26.35,30.97,0.01,0,0,-0.03,-0.01,0.89
7.5,2.56,-26.29,31.97,0,0,0,-0.03,-0.01,0.89
7.6,2.85,-26,32.97,-0.01,0,0,-0.03,-0.02,0.88
7.7,2.48,-26.66,33.97,-0.01,0.01,0,-0.03,-0.02,0.9
7.8,1.99,-27.54,34.97,-0.02,0.01,0,-0.04,-0.02,0.92
7.9,2.94,-26.36,35.97,-0.02,0.01,0,-0.05,-0.03,0.94
8,3.36,-25.83,36.97,-0.01,0,0,-0.04,-0.03,0.96
8.1,2.86,-26,37.97,0,0,0,-0.04,-0.03,0.97
8.2,2.93,-26.06,38.97,0.01,0,0,-0.04,-0.03,0.97
8.3,3.7,-26.52,39.97,0.02,-0.01,0,-0.04,-0.02,0.94
8.4,4.2,-26.77,40.97,0.02,-0.01,0,-0.04,-0.02,0.91
8.5,5.07,-27.2,41.97,0.01,0,0,-0.04,-0.01,0.9
8.6,3.43,-26.66,42.97,0,0,0,-0.03,-0.01,0.9
8.7,2.5,-26.35,43.97,-0.01,0,0,-0.03,-0.01,0.88
8.8,3.75,-26.66,44.97,-0.01,0,0,-0.03,-0.01,0.88
8.9,3.89,-26.69,45.97,-0.02,0.01,0,-0.03,-0.02,0.9
9,4.21,-26.69,46.97,-0.01,0.01,0,-0.04,-0.03,0.94
9.1,4.05,-26.96,47.97,-0.01,0,0,-0.04,-0.02,0.95
9.2,3.7,-27.54,48.97,0,0,0,-0.04,-0.03,0.97
9.3,3.7,-26.55,49.97,0.01,0,0,-0.04,-0.03,0.96
9.4,3.7,-25.83,50.97,0.02,-0.01,0,-0.04,-0.03,0.95
9.5,2.39,-25.4,51.97,0.02,-0.01,0,-0.04,-0.02,0.93
9.6,2.16,-25.32,52.97,0.01,0,0,-0.03,-0.02,0.9
9.7,3.19,-28.4,53.97,0,0,0,-0.03,-0.01,0.89
9.8,3.23,-27.66,54.97,0,0,0,-0.03,-0.01,0.89
9.9,3.36,-25.49,55.97,-0.01,0,0,-0.03,-0.01,0.9
10,3.18,-25.85,56.97,-0.01,0,0,-0.04,-0.02,0.91
10.1,3.02,-26.17,57.97,-0.01,0,0,-0.03,-0.02,0.93
10.2,3.7,-27.95,58.97,0,0,0,-0.04,-0.03,0.95
10.3,3.87,-28.4,59.97,0,0,0,-0.04,-0.03,0.95
10.4,2.85,-27.37,60.97,0.01,0,0,-0.04,-0.03,0.95
10.5,3.05,-27.24,61.97,0.01,0,0,-0.04,-0.02,0.95
10.6,3.87,-26.69,62.97,0.01,0,0,-0.03,-0.03,0.93
10.7,2.83,-26.61,63.97,0.01,0,0,-0.03,-0.02,0.91
10.8,1.65,-26.52,64.97,0,0,0,-0.03,-0.01,0.9
10.9,3.42,-26.77,65.97,0,0,0,-0.03,-0.01,0.9
11,4.04,-26.86,66.97,-0.01,0,0,-0.03,-0.02,0.9
11.1,3.02,-27.54,67.97,-0.01,0,0,-0.03,-0.02,0.91
11.2,3.04,-27.27,68.97,-0.01,0,0,-0.04,-0.02,0.92
11.3,3.19,-25.66,69.97,0,0,0,-0.04,-0.03,0.94
11.4,3.61,-26.8,70.97,0,0,0,-0.04,-0.03,0.94
11.5,4.21,-28.4,71.97,0.01,0,0,-0.04,-0.03,0.95
11.6,3.74,-27.46,72.97,0.01,0,0,-0.04,-0.03,0.94
11.7,3.53,-27.03,73.97,0.01,0,0,-0.04,-0.02,0.93
11.8,2.71,-28.18,74.97,0.01,0,0,-0.03,-0.02,0.91
11.9,2.8,-28.08,75.97,0,0,0,-0.03,-0.02,0.91
12,4.04,-26.52,76.97,0,0,0,-0.03,-0.01,0.91
12.1,3.61,-26.7,77.97,-0.01,0,0,-0.03,-0.02,0.91
12.2,2.85,-27.03,78.97,-0.01,0,0,-0.03,-0.02,0.92
12.3,3.38,-25.85,79.97,-0.01,0,0,-0.04,-0.02,0.92
12.4,3.7,-25.15,80.97,0,0,0,-0.04,-0.02,0.93
12.5,3.55,-27.46,81.97,0,0,0,-0.03,-0.03,0.93
12.6,3.54,-27.64,82.97,0,0,0,-0.04,-0.02,0.94
12.7,3.87,-25.66,83.97,0.01,0,0,-0.03,-0.02,0.93
12.8,3.66,-25.77,84.97,0.01,0,0,-0.04,-0.03,0.93
12.9,3.19,-26,85.97,0.01,0,0,-0.04,-0.02,0.92
13,3.78,-26.6,86.97,0,0,0,-0.04,-0.02,0.92
13.1,4.21,-27.03,87.97,0,0,0,-0.03,-0.02,0.91
13.2,3.7,-27.2,88.97,-0.01,0,0,-0.04,-0.02,0.92
13.3,3.03,-26.7,89.97,-0.01,0,0,-0.04,-0.02,0.92
13.4,2.67,-25.15,90.97,-0.01,0,0,-0.03,-0.02,0.92
13.5,3.65,-25.34,91.97,0,0,0,-0.04,-0.02,0.93
13.6,4.39,-25.49,92.97,0,0,0,-0.04,-0.02,0.93
13.7,3.96,-25.63,93.97,0,0,0,-0.04,-0.02,0.95
13.8,3.87,-25.66,94.97,0,0,0,-0.04,-0.03,0.93
13.9,2.85,-26,95.97,0.01,0,0,-0.04,-0.02,0.92
14,2.85,-26,96.97,0.01,0,0,-0.04,-0.02,0.93
14.1,4.73,-26.86,97.97,0,0,0,-0.04,-0.02,0.92
14.2,4.46,-27.3,98.97,0,0,0,-0.04,-0.02,0.92
14.3,4.21,-27.71,99.97,0,0,0,-0.04,-0.02,0.92
14.4,3.82,-26.26,100.97,0,0,0,-0.03,-0.02,0.92
14.5,3.7,-25.83,101.97,0,0,0,-0.03,-0.02,0.93
14.6,3.87,-26.35,102.97,0,0,0,-0.04,-0.02,0.93
14.7,3.54,-26.21,103.97,0,0,0,-0.04,-0.02,0.93
14.8,2.16,-25.66,104.97,0,0,0,-0.04,-0.02,0.93
14.9,2.32,-25.98,105.97,0,0,0,-0.04,-0.02,0.93
15,2.5,-26.35,106.97,0.01,0,0,-0.04,-0.02,0.92
15.1,2.87,-27.21,107.97,0,0,0,-0.03,-0.02,0.93
15.2,3.02,-27.54,108.97,0,0,0,-0.03,-0.02,0.92
15.3,2.68,-26.2,109.97,0,0,0,-0.04,-0.02,0.92
15.4,2.75,-26.1,110.97,0,0,0,-0.04,-0.02,0.92
15.5,3.19,-25.66,111.97,0,0,0,-0.04,-0.02,0.92
15.6,3.19,-25.66,112.97,0,0,0,-0.04,-0.02,0.92
15.7,4.7,-27.48,113.97,0,0,0,-0.03,-0.02,0.93
15.8,4.87,-27.69,114.97,0,0,0,-0.04,-0.02,0.92
15.9,3.19,-26.35,115.97,0,0,0,-0.04,-0.02,0.93
16,3.04,-26.69,116.97,0,0,0,-0.04,-0.02,0.93
16.1,2.67,-27.54,117.97,0,0,0,-0.04,-0.02,0.93
16.2,3.63,-26.78,118.97,0,0,0,-0.04,-0.02,0.93
16.3,4.39,-26.17,119.97,0,0,0,-0.04,-0.02,0.92
16.4,2.4,-25.33,120.97,0,0,0,-0.04,-0.02,0.92
16.5,1.99,-25.15,121.97,0,0,0,-0.04,-0.02,0.92
16.6,3.19,-27.03,122.97,0,0,0,-0.04,-0.02,0.92
16.7,3.31,-26.83,123.97,0,0,0,-0.04,-0.02,0.92
16.8,3.7,-26.17,124.97,0,0,0,-0.04,-0.02,0.92
16.9,3.53,-26.17,125.97,0,0,0,-0.04,-0.02,0.92
17,3.36,-26.17,126.97,0,0,0,-0.04,-0.02,0.92
17.1,4.15,-26.7,127.97,0,0,0,-0.04,-0.02,0.93
17.2,4.39,-26.86,128.97,0,0,0,-0.04,-0.02,0.92
17.3,2.33,-25.49,129.97,0,0,0,-0.04,-0.02,0.93
17.4,2.57,-25.91,130.97,0,0,0,-0.03,-0.02,0.92
17.5,3.7,-27.89,131.97,0,0,0,-0.04,-0.02,0.93
17.6,4.46,-26.82,132.97,0,0,0,-0.03,-0.02,0.93
17.7,5.41,-25.49,133.97,0,0,0,-0.03,-0.02,0.92
17.8,3.45,-25.74,134.97,0,0,0,-0.03,-0.02,0.92
17.9,2.67,-25.83,135.97,0,0,0,-0.03,-0.02,0.92
18,3.52,-27.01,136.97,0,0,0,-0.04,-0.02,0.92
18.1,3.55,-26.93,137.97,0,0,0,-0.04,-0.02,0.93
18.2,3.7,-26.17,138.97,0,0,0,-0.04,-0.02,0.93
18.3,3.43,-26.04,139.97,0,0,0,-0.04,-0.02,0.93
18.4,3.02,-25.83,140.97,0,0,0,-0.04,-0.03,0.93
18.5,2.79,-26.74,141.97,0,0,0,-0.04,-0.02,0.93
18.6,2.67,-27.2,142.97,0,0,0,-0.04,-0.02,0.93
18.7,3.15,-25.77,143.97,0,0,0,-0.04,-0.02,0.93
18.8,3.15,-25.61,144.97,0,0,0,-0.04,-0.02,0.92
18.9,2.67,-24.81,145.97,0,0,0,-0.04,-0.02,0.91
19,3.02,-25.26,146.97,0,0,0,-0.04,-0.02,0.92
19.1,3.7,-26.17,147.97,0,0,0,-0.04,-0.02,0.92
19.2,2.98,-25.87,148.97,0,0,0,-0.04,-0.02,0.93
19.3,2.5,-25.66,149.97,0,0,0,-0.03,-0.02,0.92
19.4,3.13,-25.39,150.97,0,0,0,-0.04,-0.02,0.93
19.5,3.7,-25.16,151.97,0,0,0,-0.04,-0.03,0.92
19.6,3.19,-26,152.97,0,0,0,-0.04,-0.02,0.93
19.7,2.95,-26.24,153.97,0,0,0,-0.04,-0.02,0.92
19.8,2.33,-26.86,154.97,0,0,0,-0.04,-0.02,0.91
19.9,2.52,-25.92,155.97,0,0,0,-0.04,-0.02,0.92
20,2.67,-25.15,156.97,0,0,0,-0.03,-0.02,0.92
20.1,3.09,-26.69,157.97,0,0,0,-0.04,-0.02,0.92
20.2,3.19,-27.03,158.97,0,0,0,-0.04,-0.02,0.93
20.3,3.19,-26.35,159.97,0,0,0,-0.04,-0.02,0.92
20.4,3,-26.23,160.97,0,0,0,-0.04,-0.02,0.93
20.5,2.33,-25.83,161.97,0,0,0,-0.04,-0.02,0.93
20.6,2.33,-26,162.97,0,0,0,-0.04,-0.03,0.93
20.7,2.33,-26.17,163.97,0,0,0,-0.04,-0.03,0.92
20.8,3.38,-25.92,164.97,0,0,0,-0.04,-0.02,0.92
20.9,3.7,-25.83,165.97,0,0,0,-0.04,-0.02,0.92
21,4.73,-26.52,166.97,0,0,0,-0.04,-0.02,0.92
21.1,4.7,-26.6,167.97,0,0,0,-0.04,-0.03,0.94
21.2,4.56,-27.03,168.97,0,0,0,-0.04,-0.03,0.94
21.3,4.33,-26.21,169.97,0,0,0,-0.04,-0.02,0.93
21.4,4.04,-25.15,170.97,0,0,0,-0.03,-0.02,0.93
21.5,4.04,-24.67,171.97,0,0,0,-0.03,-0.01,0.92
21.6,4.04,-24.46,172.97,0,0,0,-0.03,-0.01,0.9
21.7,3.38,-26.81,173.97,0,0,0,-0.03,-0.01,0.88
21.8,3.32,-26.75,174.97,0,0,0,-0.02,0,0.85
21.9,3.02,-25.83,175.97,0,0,0,-0.05,-0.02,0.85
22,3.08,-26.16,176.97,0,0,0,-0.05,-0.02,0.91
22.1,3.19,-26.69,177.97,0,0,0,-0.04,-0.03,0.98
22.2,3.07,-26.58,178.97,0,0,0,-0.01,-0.04,1.03
22.3,3.02,-26.52,179.97,0,0,0,-0.08,-0.08,1.02
22.4,2.86,-26.36,180.97,0,0,0,-0.06,-0.01,0.97
22.5,2.91,-26.36,181.97,0,0,0,0.04,0.01,0.98
22.6,4.04,-26.52,182.97,0,0,0,-0.15,-0.08,0.91
22.7,3.59,-25.96,183.97,0,0,0,0.04,0.04,0.81
22.8,2.67,-24.81,184.97,0,0,0,0.03,0,0.86
22.9,3.8,-25.52,185.97,0,0,0,-0.09,-0.05,0.86
23,4.56,-26,186.97,0,0,0,-0.03,0,0.83
23.1,2.77,-26.6,187.97,0,0,0,-0.04,-0.01,0.9
23.2,2.51,-26.69,188.97,0,0,0,-0.03,-0.02,0.99
23.3,3.53,-26.35,189.97,0,0,0,-0.02,-0.04,1.03
23.4,3.72,-26.35,190.97,0,0,0,-0.05,-0.06,1.01
23.5,4.21,-26.35,191.97,0,0,0,-0.05,-0.04,0.99
23.6,4.68,-25.88,192.97,0,0,0,-0.05,-0.03,0.95
23.7,5.07,-25.49,193.97,0,0,0,-0.04,-0.01,0.9
23.8,3.82,-26.19,194.97,0,0,0,-0.03,0,0.84
23.9,3.53,-26.35,195.97,0,0,0,-0.02,-0.01,0.85
24,2.16,-25.66,196.97,0,0,0,-0.02,-0.02,0.87
24.1,2.24,-25.96,197.97,0,0,0,-0.03,-0.02,0.89
24.2,2.5,-27.03,198.97,0,0,0,-0.04,-0.02,0.92
24.3,3.26,-27.11,199.97,0,0,0,-0.04,-0.02,0.96
24.4,4.04,-27.2,200.97,0,0,0,-0.05,-0.02,0.99
24.5,3.91,-26.29,201.97,0,0,0,-0.04,-0.03,0.97
24.6,3.87,-26,202.97,0,0,0,-0.03,-0.04,0.95
24.7,3.02,-26.86,203.97,0,0,0,-0.03,-0.04,0.93
24.8,3.02,-26.75,204.97,0,0,0,-0.04,-0.02,0.9
24.9,3.02,-26.17,205.97,0,0,0,-0.04,-0.01,0.88
25,3.02,-26.47,206.97,0,0,0,-0.04,-0.01,0.89
25.1,3.02,-26.86,207.97,0,0,0,-0.03,-0.01,0.9
25.2,3.86,-27.22,208.97,0,0,0,-0.03,-0.01,0.92
25.3,4.21,-27.37,209.97,0,0,0,-0.03,-0.02,0.92
25.4,2.88,-24.71,210.97,0,0,0,-0.04,-0.03,0.92
25.5,2.86,-24.8,211.97,0,0,0,-0.05,-0.03,0.94
25.6,3.06,-26.27,212.97,0,0,0,-0.04,-0.02,0.94
25.7,3.3,-26.74,213.97,0,0,0,-0.04,-0.03,0.94
25.8,3.36,-26.86,214.97,0,0,0,-0.04,-0.03,0.94
25.9,2.69,-26.52,215.97,0,0,0,-0.04,-0.03,0.94
26,2.85,-26.46,216.97,0,0,0,-0.04,-0.02,0.93
26.1,4.21,-26,217.97,0,0,0,-0.03,-0.01,0.92
26.2,3.55,-26.8,218.97,0,0,0,-0.04,-0.01,0.91
26.3,2.5,-28.06,219.97,0,0,0,-0.04,-0.01,0.9
26.4,2.5,-26.94,220.97,0,0,0,-0.03,-0.02,0.9
26.5,2.5,-26.35,221.97,0,0,0,-0.03,-0.02,0.9
26.6,3.93,-26.82,222.97,0,0,0,-0.03,-0.03,0.92
26.7,3.99,-26.85,223.97,0,0,0,-0.04,-0.03,0.95
26.8,3.19,-26.69,224.97,0,0,0,-0.04,-0.03,0.95
26.9,2.96,-26.69,225.97,0,0,0,-0.05,-0.03,0.95
27,2.5,-26.69,226.97,0,0,0,-0.04,-0.03,0.95
27.1,3.74,-26.69,227.97,0,0,0,-0.03,-0.03,0.93
27.2,4.56,-26.69,228.97,0,0,0,-0.04,-0.02,0.92
27.3,3.07,-27.58,229.97,0,0,0,-0.03,-0.01,0.9
27.4,2.85,-27.71,230.97,0,0,0,-0.03,-0.02,0.89
27.5,4.21,-26,231.97,0,0,0,-0.04,-0.02,0.89
27.6,4.59,-25.82,232.97,0,0,0,-0.04,-0.02,0.91
27.7,5.58,-25.32,233.97,0,0,0,-0.04,-0.03,0.93
27.8,4.28,-26.44,234.97,0,0,0,-0.04,-0.03,0.95
27.9,3.19,-27.37,235.97,0,0,0,-0.04,-0.02,0.96
28,3.88,-26.68,236.97,0,0,0,-0.04,-0.03,0.95
28.1,4.04,-26.52,237.97,0,0,0,-0.04,-0.03,0.94
28.2,3.87,-27.03,238.97,0,0,0,-0.04,-0.03,0.92
28.3,3.72,-26.73,239.97,0,0,0,-0.04,-0.02,0.91
28.4,3.19,-25.66,240.97,0,0,0,-0.03,-0.01,0.89
28.5,3.35,-25.83,241.97,0,0,0,-0.03,-0.02,0.9
28.6,3.53,-26,242.97,0,0,0,-0.03,-0.02,0.91
28.7,3.53,-26.52,243.97,0,0,0,-0.04,-0.02,0.92
28.8,3.53,-26.69,244.97,0,0,0,-0.03,-0.03,0.93
28.9,4.04,-26.86,245.97,0,0,0,-0.04,-0.03,0.94
29,4.13,-26.89,246.97,0,0,0,-0.04,-0.03,0.95
29.1,4.56,-27.03,247.97,0,0,0,-0.04,-0.03,0.94
29.2,3.37,-26.73,248.97,0,0,0,-0.04,-0.03,0.93
29.3,1.82,-26.35,249.97,0,0,0,-0.04,-0.03,0.92
29.4,2.06,-26.11,250.97,0,0,0,-0.04,-0.02,0.91
29.5,2.16,-26,251.97,0,0,0,-0.03,-0.02,0.9
29.6,4.5,-28.01,252.97,0,0,0,-0.04,-0.02,0.91
29.7,4.48,-27.91,253.97,0,0,0,-0.03,-0.02,0.92
29.8,3.87,-26.69,254.97,0,0,0,-0.04,-0.02,0.93
29.9,3.68,-26.75,255.97,0,0,0,-0.04,-0.02,0.93
30,3.36,-26.86,256.97,0,0,0,-0.04,-0.03,0.93
30.1,2.8,-26.53,257.97,0,0,0,-0.04,-0.03,0.93
30.2,2.5,-26.35,258.97,0,0,0,-0.04,-0.02,0.93
30.3,2.5,-26.66,259.97,0,0,0,-0.04,-0.03,0.92
30.4,2.5,-26.65,260.97,0,0,0,-0.03,-0.02,0.93
30.5,2.5,-26,261.97,0,0,0,-0.04,-0.02,0.92
30.6,2.95,-26.45,262.97,0,0,0,-0.04,-0.02,0.92
30.7,3.87,-27.37,263.97,0,0,0,-0.04,-0.02,0.91
30.8,3.87,-26.36,264.97,0,0,0,-0.03,-0.02,0.92
30.9,3.87,-25.66,265.97,0,0,0,-0.04,-0.02,0.92
31,3.87,-25.66,266.97,0,0,0,-0.04,-0.02,0.92
31.1,3.87,-25.66,267.97,0,0,0,-0.04,-0.02,0.93
31.2,3.19,-25.66,268.97,0,0,0,-0.04,-0.02,0.93
31.3,3.14,-25.71,269.97,0,0,0,-0.04,-0.03,0.93
31.4,3.02,-25.83,270.97,0,0,0,-0.04,-0.02,0.93
31.5,3.38,-26.39,271.97,0,0,0,-0.03,-0.03,0.93
31.6,3.7,-26.86,272.97,0,0,0,-0.04,-0.02,0.93
31.7,2.46,-25.61,273.97,0,0,0,-0.04,-0.02,0.93
31.8,2.16,-25.32,274.97,0.01,0,0,-0.04,-0.02,0.92
31.9,3.82,-26.32,275.97,0,0,0,-0.04,-0.02,0.92
32,3.73,-26.04,276.97,0,0,0,-0.04,-0.02,0.91
32.1,2.85,-25.32,277.97,0,0,0,-0.04,-0.02,0.92
32.2,4.07,-26,278.97,0,0,0,-0.04,-0.02,0.92
32.3,4.39,-26.17,279.97,0,0,0,-0.04,-0.02,0.93
32.4,3.53,-27.03,280.97,0,0,0,-0.04,-0.03,0.93
32.5,3.53,-26.74,281.97,0,0,0,-0.04,-0.02,0.93
32.6,3.53,-25.66,282.97,0,0,0,-0.04,-0.02,0.93
32.7,4.18,-26.32,283.97,0,0,0,-0.04,-0.02,0.93
32.8,4.9,-27.03,284.97,0,0,0,-0.04,-0.02,0.92
32.9,3.38,-25.26,285.97,0,0,0,-0.03,-0.02,0.92
33,2.85,-24.64,286.97,0,0,0,-0.04,-0.02,0.92
33.1,3.53,-24.98,287.97,0,0,0,-0.04,-0.02,0.92
33.2,3.48,-25.3,288.97,0,0,0,-0.04,-0.02,0.92
33.3,3.19,-27.03,289.97,0,0,0,-0.04,-0.03,0.92
33.4,3.62,-27.03,290.97,0,0,0,-0.04,-0.02,0.92
33.5,4.21,-27.03,291.97,0,0,0,-0.04,-0.02,0.94
33.6,3.63,-26.21,292.97,0,0,0,-0.04,-0.02,0.93
33.7,3.36,-25.83,293.97,0,0,0,-0.03,-0.02,0.93
33.8,3.36,-27.46,294.97,0,0,0,-0.04,-0.02,0.93
33.9,3.4,-27.44,295.97,0,0,0,-0.04,-0.02,0.92
34,3.7,-26.52,296.97,0,0,0,-0.04,-0.02,0.92
34.1,3.39,-26.45,297.97,0,0,0,-0.04,-0.02,0.92
34.2,2.85,-26.35,298.97,0,0,0,-0.04,-0.02,0.92
34.3,3.17,-26.02,299.97,0,0,0,-0.04,-0.02,0.93
34.4,3.36,-25.83,300.97,0,0,0,-0.04,-0.02,0.92
34.5,2.44,-27.67,301.97,0,0,0,-0.04,-0.02,0.93
34.6,2.4,-27.8,302.97,0,0,0,-0.04,-0.02,0.92
34.7,3.7,-26.17,303.97,0,0,0,-0.04,-0.03,0.92
34.8,3.27,-26.39,304.97,0,0,0,-0.04,-0.02,0.93
34.9,2.33,-26.86,305.97,0,0,0,-0.04,-0.02,0.93
35,3.12,-26.46,306.97,0,0,0,-0.04,-0.02,0.93
35.1,3.7,-26.17,307.97,0,0,0,-0.03,-0.02,0.92
35.2,3.12,-25.89,308.97,0,0,0,-0.04,-0.02,0.92
35.3,3.02,-25.83,309.97,0,0,0,-0.04,-0.02,0.92
35.4,3.36,-27.89,310.97,0,0,0,-0.04,-0.02,0.92
35.5,3.49,-27.4,311.97,0,0,0,-0.04,-0.02,0.92
35.6,3.87,-26,312.97,0,0,0,-0.04,-0.02,0.92
35.7,4.23,-26,313.97,0,0,0,-0.04,-0.02,0.92
35.8,4.56,-26,314.97,0,0,0,-0.04,-0.02,0.92
35.9,3.48,-26.27,315.97,0,0,0,-0.04,-0.02,0.93
36,3.19,-26.35,316.97,0,0,0,-0.04,-0.02,0.93
36.1,4.21,-26.35,317.97,0,0,0,-0.04,-0.02,0.92
36.2,4.04,-26.31,318.97,0,0,0,-0.03,-0.02,0.92
36.3,3.36,-26.17,319.97,0,0,0,-0.03,-0.02,0.92
36.4,3.12,-26.58,320.97,0,0,0,-0.03,-0.02,0.92
36.5,2.85,-27.03,321.97,0,0,0,-0.04,-0.02,0.92
36.6,3.59,-27.28,322.97,0,0,0,-0.03,-0.02,0.92
36.7,3.87,-27.37,323.97,0,0,0,-0.04,-0.02,0.92
36.8,3.19,-27.37,324.97,0,0,0,-0.04,-0.03,0.92
36.9,3.14,-27.22,325.97,0,0,0,-0.03,-0.02,0.93
37,2.85,-26.35,326.97,0,0,0,-0.03,-0.03,0.93
37.1,3.06,-26.28,327.97,0,0,0,-0.04,-0.03,0.93
37.2,3.36,-26.17,328.97,0,0,0,-0.03,-0.02,0.93
37.3,3.94,-26.29,329.97,0,0,0,-0.04,-0.02,0.92
37.4,4.21,-26.35,330.97,0,0,0,-0.04,-0.02,0.92
37.5,4.53,-26.67,331.97,0,0,0,-0.04,-0.02,0.92
37.6,4.46,-26.66,332.97,0,0,0,-0.04,-0.02,0.92
37.7,3.53,-26.35,333.97,0,0,0,-0.04,-0.02,0.92
37.8,4.02,-26.22,334.97,0,0,0,-0.03,-0.02,0.93
37.9,4.9,-26,335.97,0,0,0,-0.04,-0.03,0.93
38,3.72,-25.47,336.97,0,0,0,-0.03,-0.02,0.93
38.1,3.02,-25.15,337.97,0,0,0,-0.04,-0.02,0.92
38.2,2.56,-26.82,338.97,0,0,0,-0.04,-0.02,0.93
38.3,2.55,-27.02,339.97,0,0,0,-0.04,-0.02,0.93
38.4,3.53,-26.69,340.97,0,0,0,-0.04,-0.02,0.92
38.5,3.79,-26.74,341.97,0,0,0,-0.04,-0.02,0.91
38.6,4.39,-26.86,342.97,0,0,0,-0.04,-0.02,0.92
38.7,4.29,-26.76,343.97,0,0,0,-0.04,-0.02,0.92
38.8,4.21,-26.69,344.97,0,0,0,-0.04,-0.02,0.93
38.9,4.5,-26.69,345.97,0,0,0,-0.04,-0.02,0.93
39,4.56,-26.69,346.97,0,0,0,-0.04,-0.02,0.93
39.1,4.73,-27.89,347.97,0,0,0,-0.04,-0.02,0.93
39.2,4.42,-27.58,348.97,0,0,0,-0.04,-0.02,0.93
39.3,3.53,-26.69,349.97,0,0,0,-0.04,-0.02,0.92
39.4,3.09,-26.42,350.97,0,0,0,-0.04,-0.02,0.92
39.5,2.67,-26.17,351.97,0,0,0,-0.04,-0.02,0.91
39.6,2.14,-27.24,352.97,0,0,0,-0.03,-0.02,0.92
39.7,1.99,-27.54,353.97,0,0,0,-0.04,-0.02,0.92
39.8,4.21,-27.03,354.97,0,0,0,-0.04,-0.03,0.92
39.9,4.04,-27,355.97,0,0,0,-0.04,-0.02,0.93
40,3.36,-26.86,356.97,0,0,0,-0.04,-0.02,0.93
40.1,3.44,-26.46,357.97,0,0,0,-0.04,-0.02,0.93
40.2,3.53,-26,358.97,0,0,0,-0.04,-0.02,0.93
40.3,3.9,-25.38,359.97,0,0,0,-0.03,-0.02,0.92
40.4,4.04,-25.15,360.97,0,0,0,-0.03,-0.02,0.92
40.5,3.7,-25.83,361.97,0,0,0,-0.04,-0.02,0.92
40.6,3.57,-25.81,362.97,0,0,0,-0.03,-0.03,0.92
40.7,2.85,-25.66,363.97,0,0,0,-0.04,-0.02,0.92
40.8,3.06,-25.87,364.97,0,0,0,-0.04,-0.02,0.92
40.9,3.36,-26.17,365.97,0,0,0,-0.03,-0.02,0.92
41,3.59,-25.94,366.97,0,0,0,-0.04,-0.02,0.92
41.1,3.7,-25.83,367.97,0,0,0,-0.04,-0.02,0.93
41.2,4.02,-25.83,368.97,0,0,0,-0.04,-0.02,0.93
41.3,4.01,-26.1,369.97,0,0,0,-0.04,-0.02,0.92
41.4,3.7,-28.57,370.97,0,0,0,-0.04,-0.02,0.92
41.5,3.64,-28.02,371.97,0,0,0,-0.04,-0.02,0.93
41.6,3.53,-27.03,372.97,0,0,0,-0.03,-0.02,0.92
41.7,3.42,-26.5,373.97,0,0,0,-0.04,-0.02,0.92
41.8,3.36,-26.17,374.97,0,0,0,-0.04,-0.02,0.92
41.9,3.81,-26.02,375.97,0,0,0,-0.04,-0.02,0.93
42,3.88,-25.98,376.97,0,0,0,-0.04,-0.02,0.92
42.1,4.04,-25.49,377.97,0,0,0,-0.04,-0.02,0.93
42.2,3.31,-25.6,378.97,0,0,0,-0.04,-0.02,0.93
42.3,1.65,-25.83,379.97,0,0,0,-0.03,-0.02,0.92
42.4,2.91,-26.13,380.97,0,0,0,-0.03,-0.02,0.93
42.5,3.87,-26.35,381.97,0,0,0,-0.04,-0.02,0.93
42.6,3.02,-26.92,382.97,0,0,0,-0.04,-0.02,0.92
42.7,2.85,-27.03,383.97,0,0,0,-0.04,-0.02,0.92
42.8,3.36,-26.17,384.97,0,0,0,-0.04,-0.02,0.93
42.9,3.49,-26.31,385.97,0,0,0,-0.03,-0.02,0.92
43,3.87,-26.69,386.97,0,0,0,-0.04,-0.02,0.92
43.1,3.25,-26.6,387.97,0,0,0,-0.03,-0.02,0.93
43.2,2.67,-26.52,388.97,0,0,0,-0.03,-0.02,0.92
43.3,3.21,-26.25,389.97,0,0,0,-0.04,-0.02,0.92
43.4,3.36,-26.17,390.97,0,0,0,-0.03,-0.02,0.93
43.5,4.9,-27.03,391.97,0,0,0,-0.04,-0.02,0.92
43.6,4.9,-26.9,392.97,0,0,0,-0.04,-0.02,0.93
43.7,4.9,-26.35,393.97,0,0,0,-0.04,-0.02,0.93
43.8,3.87,-26.11,394.97,0,0,0,-0.03,-0.02,0.92
43.9,2.67,-25.83,395.97,0,0,0,-0.04,-0.02,0.92
44,3.67,-25.59,396.97,0,0,0,-0.04,-0.02,0.92
44.1,4.04,-25.49,397.97,0.01,0,0,-0.04,-0.03,0.93
44.2,3.2,-28.03,398.97,0,0,0,-0.03,-0.02,0.93
44.3,3.19,-27.81,399.97,0,0,0,-0.03,-0.02,0.92
44.4,3.19,-26.35,400.97,0,0,0,-0.04,-0.02,0.92
44.5,3.33,-26.91,401.97,0,0,0,-0.04,-0.03,0.93
44.6,3.53,-27.71,402.97,0,0,0,-0.04,-0.02,0.92
44.7,3.88,-25.99,403.97,0,0,0,-0.04,-0.02,0.93
44.8,4.04,-25.15,404.97,0,0,0,-0.03,-0.02,0.92
44.9,3.72,-25.79,405.97,0,0,0,-0.03,-0.02,0.93
45,3.73,-26.03,406.97,0,0,0,-0.03,-0.02,0.93
45.1,4.04,-27.89,407.97,0,0,0,-0.04,-0.02,0.93
45.2,3.8,-27.52,408.97,0.01,0,0,-0.04,-0.02,0.92
45.3,3.36,-26.86,409.97,0,0,0,-0.04,-0.03,0.93
45.4,3.36,-26.65,410.97,0,0,0,-0.03,-0.02,0.92
45.5,3.36,-26.52,411.97,0,0,0,-0.04,-0.02,0.92
45.6,3.51,-26.97,412.97,0,0,0,-0.04,-0.02,0.92
45.7,3.59,-27.05,413.97,0,0,0,-0.03,-0.02,0.92
45.8,5.07,-27.54,414.97,0,0,0,-0.04,-0.02,0.92
45.9,5.12,-27.08,415.97,0,0,0,-0.04,-0.02,0.92
46,5.24,-26,416.97,0,0,0,-0.04,-0.02,0.92
46.1,3.97,-26.88,417.97,0,0,0,-0.04,-0.02,0.92
46.2,3.02,-27.54,418.97,0,0,0,-0.04,-0.03,0.92
46.3,2.45,-25.83,419.97,0,0,0,-0.04,-0.02,0.93
46.4,2.33,-25.49,420.97,0,0,0,-0.04,-0.03,0.92
46.5,3.87,-26.35,421.97,0,0,0,-0.04,-0.02,0.92
46.6,3.83,-26.13,422.97,0,0,0,-0.04,-0.02,0.92
46.7,3.7,-25.49,423.97,0,0,0,-0.04,-0.02,0.92
46.8,3.88,-26.37,424.97,0,0,0,-0.04,-0.02,0.93
46.9,4.04,-27.2,425.97,0,0,0,-0.04,-0.02,0.92
47,3.91,-27.07,426.97,0,0,0,-0.04,-0.02,0.92
47.1,3.87,-27.03,427.97,0,0,0,-0.03,-0.02,0.93
47.2,3.19,-26.35,428.97,0,0,0,-0.04,-0.02,0.93
47.3,3.22,-26.45,429.97,0,0,0,-0.04,-0.02,0.93
47.4,3.36,-26.86,430.97,0,0,0,-0.04,-0.03,0.93
47.5,3.76,-26.31,431.97,0,0,0,-0.04,-0.02,0.92
47.6,4.21,-25.66,432.97,0,0,0,-0.04,-0.02,0.92
47.7,3.47,-26.41,433.97,0,0,0,-0.04,-0.02,0.91
47.8,3.19,-26.69,434.97,0,0,0,-0.04,-0.02,0.92
47.9,3.36,-26.18,435.97,0,0,0,-0.04,-0.02,0.92
48,3.36,-26.17,436.97,0,0,0,-0.04,-0.02,0.93
48.1,3.36,-26.17,437.97,0,0,0,-0.03,-0.02,0.92
48.2,3.36,-26.04,438.97,0,0,0,-0.04,-0.02,0.93
48.3,3.36,-25.83,439.97,0,0,0,-0.04,-0.02,0.92
48.4,4.05,-26.75,440.97,0,0,0,-0.03,-0.02,0.92
48.5,4.39,-27.2,441.97,0,0,0,-0.04,-0.02,0.92
48.6,3.43,-26.24,442.97,0,0,0,-0.03,-0.02,0.92
48.7,3.38,-26.29,443.97,0,0,0,-0.03,-0.02,0.92
48.8,3.53,-27.37,444.97,0,0,0,-0.04,-0.02,0.92
48.9,3.29,-27.01,445.97,0,0,0,-0.04,-0.02,0.92
49,2.85,-26.35,446.97,0,0,0,-0.04,-0.02,0.93
49.1,2.53,-25.6,447.97,0,0,0,-0.04,-0.02,0.92
49.2,2.33,-25.15,448.97,0,0,0,-0.04,-0.02,0.93
49.3,3.69,-27.11,449.97,0,0,0,-0.04,-0.02,0.93
49.4,3.81,-27.33,450.97,0,0,0,-0.03,-0.02,0.92
49.5,2.16,-26.35,451.97,0,0,0,-0.04,-0.02,0.92
49.6,2.16,-26.24,452.97,0,0,0,-0.04,-0.02,0.92
49.7,2.16,-26,453.97,0,0,0,-0.04,-0.02,0.92
49.8,2.16,-26.59,454.97,0,0,0,-0.04,-0.02,0.92
49.9,2.16,-27.03,455.97,0,0,0,-0.04,-0.02,0.92
50,4.15,-26.46,456.97,0,0,0,-0.04,-0.02,0.92
50.1,4.56,-26.35,457.97,0,0,0,-0.04,-0.02,0.92
50.2,4.21,-27.03,458.97,0,0,0,-0.04,-0.02,0.93
50.3,4.09,-26.65,459.97,0,0,0,-0.04,-0.02,0.93
50.4,3.7,-25.49,460.97,0,0,0,-0.03,-0.03,1
50.5,3.61,-25.76,461.97,0,0,0,-0.03,-0.03,0.95
50.6,3.53,-26,462.97,0,0,0,-0.06,-0.03,0.87
50.7,2.6,-26.14,463.97,0,0,0,-0.05,-0.03,0.95
50.8,2.33,-26.17,464.97,0,0,0,-0.03,-0.02,1.02
50.9,3.02,-26.86,465.97,0,0,0,-0.03,-0.02,0.97
51,2.75,-26.66,466.97,0,0,0,-0.03,-0.01,0.92
51.1,1.65,-25.83,467.97,0,0,0,-0.02,0,0.88
51.2,2.75,-26.62,468.97,0,0,0,-0.03,0,0.81
51.3,4.04,-27.54,469.97,0,0,0,-0.04,0,0.76
51.4,4.66,-26.43,470.97,0,0,0,-0.02,0,0.78
51.5,4.9,-26,471.97,0,0,0,0,-0.01,0.81
51.6,3.72,-27.86,472.97,0,0,0,-0.07,-0.04,0.82
51.7,3.78,-27.52,473.97,0,0,0,-0.07,-0.02,0.98
51.8,4.21,-25.32,474.97,0,0,0,0.01,-0.01,1.2
51.9,4.35,-26.01,475.97,0,0,0,-0.05,-0.09,1.26
52,4.56,-27.03,476.97,0,0,0,-0.13,-0.08,1.05
52.1,3.52,-27.38,477.97,0,0,0,0.06,0,0.97
52.2,3.02,-27.54,478.97,0,0,0,-0.1,-0.07,0.88
52.3,2.7,-27.86,479.97,0,0,0,-0.04,0.01,0.78
52.4,2.8,-27.73,480.97,0,0,0,-0.01,0.03,0.75
52.5,4.04,-26.17,481.97,0,0,0,-0.04,0,0.84
52.6,3.62,-26.6,482.97,0,0,0,-0.01,-0.01,0.91
52.7,2.85,-27.37,483.97,0,0,0,-0.03,-0.03,0.89
52.8,2.53,-27.48,484.97,0,0,0,-0.05,-0.02,0.86
52.9,2.33,-27.54,485.97,0,0,0,-0.03,0,0.89
53,2.78,-26.19,486.97,0,0,0,-0.04,0,0.98
53.1,2.87,-26,487.97,0,0,0,-0.03,-0.02,1
53.2,3.53,-26,488.97,0,0,0,-0.04,-0.05,0.99
53.3,3.32,-25.69,489.97,0,0,0,-0.05,-0.07,0.99
53.4,2.85,-24.98,490.97,0,0,0,-0.05,-0.07,0.99
53.5,3.23,-25.56,491.97,0,0,0,-0.05,-0.04,0.95
53.6,3.53,-26,492.97,0,0,0,-0.04,0,0.9
53.7,2.82,-25.29,493.97,0,0,0,-0.03,0.01,0.9
53.8,2.67,-25.15,494.97,0,0,0,-0.02,0.01,0.91
53.9,3.53,-26.69,495.97,0,0,0,-0.01,-0.01,0.88
54,3.95,-26.6,496.97,0,0,0,-0.03,-0.02,0.85
54.1,5.24,-26.35,497.97,0,0,0,-0.04,-0.02,0.83
54.2,3.58,-26.79,498.97,0,0,0,-0.04,-0.01,0.84
54.3,1.99,-27.2,499.97,0,0,0,-0.04,-0.01,0.91
54.4,2.26,-27.47,500.97,0,0,0,-0.04,-0.03,1
54.5,2.33,-27.54,501.97,0,0,0,-0.04,-0.05,1.06
54.6,4.04,-25.49,502.97,0,0,0,-0.04,-0.06,1.05
54.7,3.91,-25.96,503.97,0,0,0,-0.05,-0.05,1
54.8,3.36,-27.89,504.97,0,0,0,-0.04,-0.03,0.94
54.9,2.96,-26.7,505.97,0,0,0,-0.04,0,0.87
55,2.5,-25.32,506.97,0,0,0,-0.03,0.01,0.84
55.1,2.87,-24.95,507.97,0,0,0,-0.02,0,0.83
55.2,3.02,-24.81,508.97,0,0,0,-0.03,-0.01,0.84
55.3,2.34,-27.17,509.97,0.01,0,0,-0.03,-0.02,0.86
55.4,2.51,-26.83,510.97,0,0,0,-0.04,-0.02,0.91
55.5,3.53,-24.64,511.97,0,0,0,-0.04,-0.02,0.96
55.6,3.74,-25.12,512.97,0,0,0,-0.04,-0.03,1.02
55.7,4.04,-25.83,513.97,0,0,0,-0.04,-0.04,1.02
55.8,3.58,-25.6,514.97,0,0,0,-0.04,-0.04,0.98
55.9,3.36,-25.49,515.97,0,0,0,-0.04,-0.04,0.94
56,3.04,-26.13,516.97,0,0,0,-0.04,-0.02,0.89
56.1,3.05,-26.24,517.97,0,0,0,-0.04,-0.01,0.86
56.2,3.36,-26.86,518.97,0,0,0,-0.04,-0.01,0.85
56.3,2.93,-26.8,519.97,0,0,0,-0.03,-0.01,0.87
56.4,2.16,-26.69,520.97,0,0,0,-0.03,-0.01,0.9
56.5,2.69,-26.16,521.97,0,0,0,-0.03,-0.02,0.93
56.6,3.02,-25.83,522.97,0,0,0,-0.04,-0.02,0.94
56.7,4.07,-27.79,523.97,0,0,0,-0.04,-0.03,0.96
56.8,4.15,-27.98,524.97,0,0,0,-0.04,-0.03,0.96
56.9,2.5,-26,525.97,-0.01,0,0,-0.04,-0.03,0.95
57,2.86,-25.95,526.97,0,0,0,-0.04,-0.03,0.94
57.1,3.7,-25.83,527.97,0,0,0,-0.04,-0.03,0.92
57.2,3.51,-26.03,528.97,0,0,0,-0.04,-0.02,0.91
57.3,3.36,-26.17,529.97,0,0,0,-0.04,-0.02,0.91
57.4,2.79,-25.61,530.97,0,0,0,-0.03,-0.01,0.9
57.5,2.67,-25.49,531.97,0,0,0,-0.04,-0.01,0.91
57.6,2.85,-27.03,532.97,0,0,0,-0.04,-0.01,0.91
57.7,2.89,-26.9,533.97,0,0,0,-0.04,-0.02,0.91
57.8,3.02,-26.52,534.97,0,0,0,-0.04,-0.03,0.92
57.9,3.19,-26.69,535.97,0,0,0,-0.04,-0.03,0.93
58,3.36,-26.86,536.97,0,0,0,-0.04,-0.02,0.94
58.1,4.02,-27.26,537.97,0,0,0,-0.04,-0.03,0.94
58.2,4.21,-27.37,538.97,0,0,0,-0.04,-0.03,0.95
58.3,4.21,-26.69,539.97,0,0,0,-0.04,-0.02,0.94
58.4,3.91,-26.92,540.97,0,0,0,-0.04,-0.02,0.92
58.5,2.67,-27.89,541.97,0,0,0,-0.03,-0.01,0.91
58.6,2.75,-27.65,542.97,0.01,0,0,-0.04,-0.02,0.9
58.7,2.85,-27.37,543.97,0,0,0,-0.04,-0.02,0.89
58.8,3.09,-26.39,544.97,0,0,0,-0.04,-0.02,0.9
58.9,3.19,-26,545.97,0,0,0,-0.04,-0.02,0.91
59,4.03,-26.17,546.97,0,0,0,-0.04,-0.03,0.93
59.1,4.19,-26.17,547.97,0,0,0,-0.04,-0.03,0.96
59.2,5.07,-26.17,548.97,0,0,0,-0.04,-0.03,0.96
59.3,4.23,-26.45,549.97,0,0,0,-0.04,-0.03,0.96
59.4,3.02,-26.86,550.97,0,0,0,-0.04,-0.02,0.94
59.5,1.98,-26.98,551.97,0,0,0,-0.03,-0.02,0.92
59.6,1.48,-27.03,552.97,0,0,0,-0.04,-0.02,0.9
59.7,3.23,-26.87,553.97,0,0,0,-0.03,-0.01,0.89
59.8,3.28,-26.81,554.97,0,0,0,-0.04,-0.01,0.9
59.9,2.5,-26.35,555.97,0,0,0,-0.04,-0.02,0.91
60,3.05,-26.53,556.97,0,0,0,-0.04,-0.03,0.92
60.1,4.04,-26.86,557.97,0,0,0,-0.04,-0.03,0.95
60.2,4.04,-26.44,558.97,0,0,0,-0.04,-0.03,0.95
60.3,4.04,-26.17,559.97,0,0,0,-0.04,-0.02,0.96
60.4,3.29,-26.03,560.97,0,0,0,-0.04,-0.03,0.94
60.5,3.19,-25.97,561.97,0,0,0,-0.03,-0.02,0.93
60.6,3.19,-24.98,562.97,0,0,0,-0.04,-0.02,0.9
60.7,3.19,-25.39,563.97,0,0,0,-0.04,-0.02,0.9
60.8,3.19,-26.35,564.97,0,0,0,-0.04,-0.02,0.89
60.9,2.99,-26.15,565.97,0,0,0,-0.04,-0.02,0.91
61,2.85,-26,566.97,0,0,0,-0.03,-0.02,0.92
61.1,2.56,-26,567.97,0,0,0,-0.04,-0.02,0.93
61.2,2.5,-26,568.97,0,0,0,-0.03,-0.02,0.94
61.3,3.7,-25.49,569.97,0,0,0,-0.04,-0.03,0.95
61.4,3.53,-25.66,570.97,0,0,0,-0.04,-0.03,0.94
61.5,3.02,-26.17,571.97,0,0,0,-0.04,-0.03,0.93
61.6,3.37,-26.35,572.97,0,0,0,-0.03,-0.02,0.93
61.7,3.7,-26.52,573.97,0,0,0,-0.04,-0.02,0.91
61.8,3.83,-26.39,574.97,0,0,0,-0.04,-0.02,0.91
61.9,3.87,-26.35,575.97,0,0,0,-0.03,-0.02,0.91
62,2.67,-26.52,576.97,0,0,0,-0.03,-0.02,0.91
62.1,2.71,-26.55,577.97,0,0,0,-0.03,-0.02,0.92
62.2,2.85,-26.69,578.97,0,0,0,-0.04,-0.02,0.92
62.3,3.4,-26.45,579.97,0,0,0,-0.03,-0.02,0.93
62.4,4.04,-26.17,580.97,0,0,0,-0.04,-0.02,0.93
62.5,2.81,-26.42,581.97,0,0,0,-0.04,-0.02,0.94
62.6,2.33,-26.52,582.97,0,0,0,-0.04,-0.02,0.93
62.7,3.84,-27.36,583.97,0,0,0,-0.04,-0.03,0.93
62.8,3.7,-27.2,584.97,0,0,0,-0.04,-0.02,0.92
62.9,2.67,-26.17,585.97,0,0,0,-0.03,-0.02,0.92
63,3.16,-26.38,586.97,0,0,0,-0.04,-0.02,0.92
63.1,3.87,-26.69,587.97,0,0,0,-0.04,-0.02,0.91
63.2,3.18,-26.69,588.97,0,0,0,-0.04,-0.02,0.92
63.3,2.85,-26.69,589.97,0,0,0,-0.04,-0.02,0.92
63.4,4.44,-26.37,590.97,0,0,0,-0.04,-0.02,0.92
63.5,4.51,-26.42,591.97,0,0,0,-0.04,-0.02,0.93
63.6,4.04,-27.2,592.97,0,0,0,-0.04,-0.02,0.93
63.7,3.8,-27.57,593.97,0,0,0,-0.04,-0.02,0.93
63.8,3.36,-28.23,594.97,0,0,0,-0.04,-0.02,0.93
63.9,4.2,-27.17,595.97,0,0,0,-0.04,-0.02,0.93
64,4.73,-26.52,596.97,0,0,0,-0.03,-0.02,0.93
64.1,3.22,-25.92,597.97,0,0,0,-0.03,-0.02,0.91
64.2,3.03,-25.85,598.97,0,0,0,-0.04,-0.02,0.91
64.3,3.53,-26.35,599.97,0,0,0,-0.04,-0.02,0.92
64.4,3.63,-26.24,600.97,0,0,0,-0.04,-0.02,0.92
64.5,3.87,-26,601.97,0,0,0,-0.04,-0.02,0.92
64.6,3.49,-26,602.97,0,0,0,-0.04,-0.03,0.93
64.7,3.19,-26,603.97,0,0,0,-0.04,-0.02,0.93
64.8,3.61,-26.43,604.97,0,0,0,-0.04,-0.02,0.93
64.9,3.7,-26.52,605.97,0,0,0,-0.04,-0.02,0.93
65,4.73,-26.17,606.97,0,0,0,-0.04,-0.02,0.93
65.1,4.52,-26.47,607.97,0,0,0,-0.04,-0.02,0.92
65.2,3.87,-27.37,608.97,0,0,0,-0.04,-0.02,0.91
65.3,3.26,-26.76,609.97,0,0,0,-0.03,-0.02,0.91
65.4,2.67,-26.17,610.97,0,0,0,-0.04,-0.02,0.92
65.5,3.47,-25.65,611.97,0,0,0,-0.03,-0.02,0.92
65.6,3.7,-25.49,612.97,0,0,0,-0.04,-0.02,0.93
65.7,4.04,-26.17,613.97,0,0,0,-0.03,-0.02,0.93
65.8,3.84,-26.17,614.97,0,0,0,-0.04,-0.02,0.93
65.9,3.02,-26.17,615.97,0,0,0,-0.04,-0.02,0.93
66,2.62,-26.41,616.97,0,0,0,-0.04,-0.02,0.92
66.1,2.16,-26.69,617.97,0,0,0,-0.03,-0.02,0.93
66.2,3.64,-26.19,618.97,0,0,0,-0.03,-0.02,0.91
66.3,4.21,-26,619.97,0,0,0,-0.04,-0.02,0.91
66.4,3.71,-26.17,620.97,0,0,0,-0.04,-0.02,0.92
66.5,3.73,-26.05,621.97,0,0,0,-0.04,-0.02,0.92
66.6,3.87,-25.32,622.97,0,0,0,-0.04,-0.02,0.92
66.7,3.45,-26.16,623.97,0,0,0,-0.04,-0.02,0.92
66.8,2.85,-27.37,624.97,0,0,0,-0.04,-0.02,0.93
66.9,3.07,-26.46,625.97,0,0,0,-0.03,-0.02,0.93
67,3.19,-26,626.97,0,0,0,-0.03,-0.02,0.93
67.1,4.15,-27.6,627.97,0,0,0,-0.04,-0.02,0.92
67.2,4.18,-27.68,628.97,0,0,0,-0.04,-0.02,0.92
67.3,3.87,-27.37,629.97,0,0,0,-0.04,-0.02,0.92
67.4,3.63,-26.77,630.97,0,0,0,-0.03,-0.02,0.92
67.5,3.19,-25.66,631.97,0,0,0,-0.03,-0.02,0.92
67.6,3.08,-26.82,632.97,0,0,0,-0.04,-0.02,0.93
67.7,3.02,-27.54,633.97,0,0,0,-0.04,-0.02,0.93
67.8,3.47,-26.79,634.97,0,0,0,-0.03,-0.02,0.92
67.9,3.56,-26.63,635.97,0,0,0,-0.04,-0.02,0.93
68,4.39,-25.15,636.97,0,0,0,-0.04,-0.02,0.93
68.1,4.28,-25.45,637.97,0,0,0,-0.04,-0.02,0.92
68.2,4.04,-26.17,638.97,0,0,0,-0.04,-0.03,0.93
68.3,3.85,-25.98,639.97,0,0,0,-0.03,-0.03,0.92
68.4,3.7,-25.83,640.97,0,0,0,-0.04,-0.02,0.92
68.5,2.57,-26.12,641.97,0,0,0,-0.04,-0.02,0.92
68.6,2.33,-26.17,642.97,0,0,0,-0.03,-0.02,0.92
68.7,2.67,-26.86,643.97,0.01,0,0,-0.04,-0.02,0.92
68.8,3.1,-26.86,644.97,0,0,0,-0.04,-0.02,0.92
68.9,4.39,-26.86,645.97,0,0,0,-0.04,-0.02,0.92
69,3.95,-26.95,646.97,0,0,0,-0.04,-0.02,0.92
69.1,3.53,-27.03,647.97,0,0,0,-0.04,-0.02,0.92
69.2,3.13,-27.69,648.97,0,0,0,-0.03,-0.02,0.93
69.3,3.02,-27.89,649.97,0,0,0,-0.04,-0.02,0.93
69.4,1.82,-24.98,650.97,0,0,0,-0.04,-0.02,0.93
69.5,1.95,-25.31,651.97,0,0,0,-0.03,-0.02,0.92
69.6,2.5,-26.69,652.97,0,0,0,-0.03,-0.02,0.92
69.7,3.05,-26.61,653.97,0,0,0,-0.03,-0.02,0.92
69.8,3.7,-26.52,654.97,0,0,0,-0.04,-0.02,0.92
69.9,3.21,-26.03,655.97,0,0,0,-0.04,-0.02,0.91
70,3.02,-25.83,656.97,0,0,0,-0.04,-0.02,0.92
70.1,3.02,-24.82,657.97,0,0,0,-0.03,-0.02,0.92
70.2,3.14,-25.12,658.97,0,0,0,-0.04,-0.02,0.92
70.3,3.87,-27.03,659.97,0,0,0,-0.04,-0.02,0.92
70.4,4.01,-26.62,660.97,0,0,0,-0.04,-0.02,0.93
70.5,4.21,-26,661.97,0,0,0,-0.04,-0.02,0.93
70.6,3.18,-27.03,662.97,0,0,0,-0.04,-0.02,0.92
70.7,2.67,-27.54,663.97,0,0,0,-0.04,-0.02,0.93
70.8,2.83,-27.38,664.97,0,0,0,-0.04,-0.02,0.93
70.9,2.92,-27.51,665.97,0,0,0,-0.03,-0.02,0.92
71,3.7,-28.91,666.97,0,0,0,-0.04,-0.02,0.93
71.1,3.22,-27.84,667.97,0,0,0,-0.04,-0.02,0.93
71.2,2.33,-25.83,668.97,0,0,0,-0.04,-0.02,0.92
71.3,2.54,-26.67,669.97,0,0,0,-0.03,-0.02,0.92
71.4,2.67,-27.2,670.97,0,0,0,-0.04,-0.02,0.93
71.5,2.52,-26.45,671.97,0,0,0,-0.03,-0.02,0.93
71.6,2.58,-26.36,672.97,0,0,0,-0.04,-0.02,0.92
71.7,4.9,-26.69,673.97,0,0,0,-0.04,-0.02,0.93
71.8,4.75,-26.54,674.97,0,0,0,-0.04,-0.02,0.92
71.9,4.39,-26.17,675.97,0,0,0,-0.04,-0.02,0.92
72,4.48,-27.04,676.97,0,0,0,-0.04,-0.02,0.92
72.1,4.56,-27.71,677.97,0,0,0,-0.04,-0.02,0.92
72.2,4.13,-26.45,678.97,0,0,0,-0.04,-0.02,0.92
72.3,4.04,-26.17,679.97,0,0,0,-0.04,-0.03,0.92
72.4,3.19,-28.4,680.97,0,0,0,-0.04,-0.02,0.92
72.5,3.31,-27.69,681.97,0,0,0,-0.04,-0.03,0.93
72.6,3.7,-25.49,682.97,0,0,0,-0.03,-0.02,0.92
72.7,2.66,-26.36,683.97,0,0,0,-0.04,-0.02,0.92
72.8,1.65,-27.2,684.97,0,0,0,-0.04,-0.02,0.93
72.9,3.23,-26.67,685.97,0,0,0,-0.04,-0.02,0.93
73,3.7,-26.52,686.97,0,0,0,-0.04,-0.02,0.92
73.1,4.39,-25.83,687.97,0,0,0,-0.04,-0.02,0.92
73.2,4.09,-26.07,688.97,0,0,0,-0.04,-0.02,0.92
73.3,2.85,-27.03,689.97,0,0,0,-0.04,-0.02,0.92
73.4,2.69,-26.56,690.97,0,0,0,-0.04,-0.03,0.91
73.5,2.5,-26,691.97,0,0,0,-0.04,-0.02,0.92
73.6,3.36,-25.88,692.97,0,0,0,-0.04,-0.02,0.92
73.7,3.7,-25.83,693.97,0,0,0,-0.04,-0.02,0.93
73.8,2.52,-26.67,694.97,0,0,0,-0.04,-0.02,0.93
73.9,2.53,-26.66,695.97,0,0,0,-0.04,-0.02,0.92
74,2.67,-26.52,696.97,0,0,0,-0.04,-0.02,0.92
74.1,2.67,-26.38,697.97,0,0,0,-0.04,-0.02,0.92
74.2,2.67,-26.17,698.97,0,0,0,-0.04,-0.02,0.92
74.3,3.36,-26.4,699.97,0,0,0,-0.04,-0.02,0.92
74.4,3.7,-26.52,700.97,0,0,0,-0.04,-0.03,0.93
74.5,3.22,-27,701.97,0,0,0,-0.04,-0.02,0.92
74.6,3.11,-26.99,702.97,0,0,0,-0.04,-0.02,0.94
74.7,2.33,-26.52,703.97,0,0,0,-0.04,-0.02,0.92
74.8,3.11,-26.46,704.97,0,0,0,-0.04,-0.02,0.93
74.9,4.56,-26.35,705.97,0,0,0,-0.04,-0.03,0.93
75,4.03,-25.82,706.97,0,0,0,-0.04,-0.02,0.92
75.1,3.7,-25.49,707.97,0,0,0,-0.04,-0.02,0.92
75.2,4,-25.19,708.97,0,0,0,-0.04,-0.02,0.92
75.3,4.01,-25.22,709.97,0.01,0,0,-0.04,-0.02,0.92
75.4,3.02,-27.2,710.97,0,0,0,-0.04,-0.02,0.92
75.5,2.66,-27.05,711.97,0,0,0,-0.04,-0.02,0.93
75.6,1.82,-26.69,712.97,0,0,0,-0.04,-0.02,0.93
75.7,2.2,-26.88,713.97,0,0,0,-0.04,-0.03,0.92
75.8,2.5,-27.03,714.97,0,0,0,-0.04,-0.02,0.93
75.9,2.93,-26.61,715.97,0,0,0,-0.04,-0.02,0.92
76,3.02,-26.52,716.97,0,0,0,-0.04,-0.02,0.92
76.1,3.02,-27.2,717.97,0,0,0,-0.04,-0.02,0.93
76.2,3.14,-27.16,718.97,0,0,0,-0.03,-0.02,0.92
76.3,3.53,-27.03,719.97,0,0,0,-0.03,-0.02,0.92
76.4,2.66,-27.03,720.97,0,0,0,-0.04,-0.02,0.92
76.5,1.82,-27.03,721.97,0.01,0,0,-0.03,-0.02,0.93
76.6,2.75,-26.37,722.97,0,0,0,-0.04,-0.02,0.92
76.7,3.02,-26.17,723.97,0,0,0,-0.04,-0.02,0.92
76.8,3.19,-26.35,724.97,0,0,0,-0.04,-0.02,0.93
76.9,3.42,-26.45,725.97,0,0,0,-0.04,-0.02,0.92
77,4.39,-26.86,726.97,-0.01,0,0,-0.04,-0.02,0.92
77.1,3.99,-26.47,727.97,0,0,0,-0.04,-0.02,0.93
77.2,3.53,-26,728.97,0,0,0,-0.04,-0.02,0.92
77.3,3.9,-26.87,729.97,0,0,0,-0.04,-0.02,0.92
77.4,4.04,-27.2,730.97,0,0,0,-0.04,-0.03,0.92
77.5,3.03,-26.19,731.97,0,0,0,-0.04,-0.02,0.93
77.6,3.09,-26.25,732.97,0.01,0,0,-0.04,-0.02,0.93
77.7,3.53,-26.69,733.97,0,0,0,-0.03,-0.03,0.93
77.8,3.95,-26.97,734.97,0,0,0,-0.03,-0.02,0.93
77.9,4.56,-27.37,735.97,0,0,0,-0.04,-0.03,0.93
78,2.49,-27.37,736.97,0,0,0,-0.04,-0.02,0.92
78.1,1.48,-27.37,737.97,-0.01,0,0,-0.03,-0.02,0.92
78.2,2.92,-26.89,738.97,-0.01,0,0,-0.03,-0.02,0.92
78.3,3.14,-26.83,739.97,0,0,0,-0.04,-0.02,0.93
78.4,4.39,-26.52,740.97,0,0,0,-0.04,-0.02,0.92
78.5,3.96,-26.7,741.97,0,0,0,-0.04,-0.02,0.92
78.6,3.19,-27.03,742.97,0.01,0,0,-0.04,-0.02,0.92
78.7,3.5,-27.14,743.97,0.01,0,0,-0.04,-0.02,0.92
78.8,3.7,-27.2,744.97,0.01,0,0,-0.03,-0.02,0.92
78.9,3.1,-25.7,745.97,0,0,0,-0.04,-0.02,0.93
79,3.02,-25.55,746.97,0,0,0,-0.04,-0.02,0.92
79.1,3.19,-27.03,747.97,0,0,0,-0.04,-0.02,0.92
79.2,3.24,-27.08,748.97,0,0,0,-0.04,-0.02,0.92
79.3,3.36,-27.2,749.97,0,0,0,-0.03,-0.02,0.91
79.4,3.55,-27.01,750.97,0,0,0,-0.04,-0.02,0.93
79.5,3.7,-26.86,751.97,0,0,0,-0.04,-0.02,0.92
79.6,3.84,-26.43,752.97,0,0,0,-0.04,-0.02,0.92
79.7,3.87,-26.35,753.97,0.01,0,0,-0.04,-0.02,0.93
79.8,3.02,-26.52,754.97,0.01,0,0,-0.04,-0.02,0.93
79.9,3.1,-26.86,755.97,0.01,0,0,-0.04,-0.02,0.92
80,3.36,-27.89,756.97,0,0,0,-0.04,-0.02,0.92
80.1,3.62,-27.27,757.97,0,0,0,-0.04,-0.03,0.93
80.2,3.87,-26.69,758.97,-0.01,0,0,-0.04,-0.02,0.92
80.3,4.8,-26.03,759.97,-0.01,0,0,-0.04,-0.02,0.92
80.4,5.07,-25.83,760.97,0,0,0,-0.03,-0.02,0.93
80.5,4.04,-26.52,761.97,0,0,0,-0.04,-0.02,0.92
80.6,3.98,-26.58,762.97,0,0,0,-0.04,-0.02,0.92
80.7,3.7,-26.86,763.97,0,0,0,-0.04,-0.03,0.93
80.8,3.94,-25.84,764.97,0.01,0,0,-0.04,-0.02,0.92
80.9,4.21,-24.64,765.97,0.01,0,0,-0.03,-0.03,0.93
81,3.97,-25.62,766.97,0,0,0,-0.04,-0.02,0.93
81.1,3.87,-26,767.97,0,0,0,-0.04,-0.02,0.93
81.2,3.7,-26.51,768.97,0,0,0,-0.04,-0.02,0.92
81.3,3.6,-26.52,769.97,0,0,0,-0.04,-0.02,0.92
81.4,3.02,-26.52,770.97,-0.01,0,0,-0.04,-0.03,0.92
81.5,2.6,-26.66,771.97,-0.01,0,0,-0.04,-0.02,0.92
81.6,1.99,-26.86,772.97,0,0,0,-0.03,-0.03,0.92
81.7,2.79,-26.52,773.97,0,0,0,-0.04,-0.02,0.92
81.8,3.19,-26.35,774.97,0,0,0,-0.04,-0.02,0.92
81.9,3.35,-27.78,775.97,0,0,0,-0.04,-0.02,0.93
82,3.48,-27.73,776.97,0,0,0,-0.04,-0.02,0.92
82.1,4.73,-26.17,777.97,0,0,0,-0.04,-0.03,0.92
82.2,4.37,-26.54,778.97,0,0,0,-0.04,-0.02,0.92
82.3,3.7,-27.2,779.97,0,0,0,-0.04,-0.02,0.93
82.4,2.96,-27.31,780.97,-0.01,0,0,-0.03,-0.02,0.92
82.5,2.5,-27.37,781.97,0,0,0,-0.04,-0.03,0.92
82.6,2.96,-27.22,782.97,0,0,0,-0.04,-0.02,0.92
82.7,3,-27.18,783.97,0,0,0,-0.04,-0.02,0.92
82.8,2.5,-26.69,784.97,0,0,0,-0.04,-0.02,0.92
82.9,2.66,-26.64,785.97,0,0,0,-0.04,-0.02,0.92
83,3.02,-26.52,786.97,0.01,0,0,-0.04,-0.02,0.92
83.1,3.4,-26.9,787.97,0,0,0,-0.04,-0.02,0.93
83.2,3.7,-27.2,788.97,0,0,0,-0.03,-0.03,0.92
83.3,3.7,-27.77,789.97,0,0,0,-0.04,-0.02,0.92
83.4,3.7,-27.89,790.97,0,0,0,-0.04,-0.02,0.92
83.5,1.48,-27.71,791.97,0,0,0,-0.04,-0.02,0.92
83.6,1.73,-27.71,792.97,0,0,0,-0.04,-0.02,0.92
83.7,2.5,-27.71,793.97,0,0,0,-0.04,-0.02,0.92
83.8,3.29,-26.58,794.97,0,0,0,-0.03,-0.02,0.92
83.9,4.04,-25.49,795.97,0,0,0,-0.04,-0.02,0.93
84,3.38,-26.15,796.97,0,0,0,-0.04,-0.02,0.93
84.1,3.19,-26.35,797.97,0,0,0,-0.04,-0.02,0.93
84.2,3.02,-26.17,798.97,0,0,0,-0.03,-0.02,0.92
84.3,3.42,-26.38,799.97,0,0,0,-0.04,-0.02,0.92
84.4,5.07,-27.2,800.97,0,0,0,-0.04,-0.02,0.92
84.5,4.28,-26.89,801.97,0,0,0,-0.04,-0.02,0.92
84.6,3.36,-26.52,802.97,0,0,0,-0.04,-0.02,0.93
84.7,3.85,-27.26,803.97,0,0,0,-0.04,-0.02,0.92
84.8,4.04,-27.54,804.97,0,0,0,-0.03,-0.02,0.93
84.9,4.21,-25.69,805.97,0,0,0,-0.04,-0.02,0.93
85,4.02,-25.66,806.97,0,0,0,-0.04,-0.02,0.93
85.1,2.85,-25.66,807.97,0,0,0,-0.04,-0.02,0.93
85.2,3.12,-25.94,808.97,0,0,0,-0.04,-0.02,0.93
85.3,3.53,-26.35,809.97,0,0,0,-0.04,-0.02,0.92
85.4,3.76,-26.57,810.97,0,0,0,-0.03,-0.02,0.92
85.5,3.87,-26.69,811.97,0,0,0,-0.04,-0.02,0.91
85.6,3.55,-25.41,812.97,0,0,0,-0.04,-0.02,0.92
85.7,3.47,-25.38,813.97,0,0,0,-0.04,-0.02,0.92
85.8,2.85,-26,814.97,0,0,0,-0.03,-0.02,0.92
85.9,3.21,-26.12,815.97,0,0,0,-0.04,-0.02,0.93
86,3.87,-26.35,816.97,0,0,0,-0.03,-0.02,0.93
86.1,4.19,-26.87,817.97,0,0,0,-0.04,-0.02,0.92
86.2,4.39,-27.2,818.97,0,0,0,-0.04,-0.02,0.92
86.3,3.49,-26.3,819.97,0,0,0,-0.04,-0.02,0.91
86.4,3.36,-26.17,820.97,0,0,0,-0.04,-0.02,0.92
86.5,3.53,-26,821.97,0,0,0,-0.04,-0.02,0.93
86.6,3.33,-26.11,822.97,0,0,0,-0.04,-0.02,0.92
86.7,2.85,-26.35,823.97,0,0,0,-0.04,-0.02,0.92
86.8,2.85,-26.35,824.97,0,0,0,-0.04,-0.02,0.92
86.9,2.85,-26.35,825.97,0,0,0,-0.04,-0.02,0.93
87,3.41,-27.47,826.97,-0.01,0,0,-0.04,-0.02,0.93
87.1,3.53,-27.71,827.97,0,0,0,-0.04,-0.02,0.93
87.2,3.7,-26.17,828.97,0,0,0,-0.04,-0.03,0.92
87.3,3.32,-26.55,829.97,0,0,0,-0.04,-0.03,0.92
87.4,2.16,-27.71,830.97,0,0,0,-0.04,-0.02,0.92
87.5,3.21,-28.41,831.97,0,0,0,-0.04,-0.02,0.92
87.6,4.21,-29.08,832.97,0,0,0,-0.04,-0.02,0.92
87.7,3.42,-26.17,833.97,0,0,0,-0.04,-0.02,0.92
87.8,3.19,-25.32,834.97,0,0,0,-0.04,-0.03,0.93
87.9,2.33,-26.52,835.97,0,0,0,-0.03,-0.02,0.92
88,2.43,-26.42,836.97,0,0,0,-0.03,-0.02,0.93
88.1,2.85,-26,837.97,0,0,0,-0.04,-0.02,0.92
88.2,3.31,-25.85,838.97,0,0,0,-0.04,-0.03,0.92
88.3,3.87,-25.66,839.97,0,0,0,-0.03,-0.03,0.95
88.4,3.87,-25.91,840.97,0,0,0,-0.02,-0.03,0.88
88.5,3.87,-26,841.97,0,0,0,-0.05,-0.01,0.73
88.6,2.7,-25.84,842.97,0,0,0,-0.07,-0.02,0.84
88.7,2.93,-26.05,843.97,0,0,0,-0.04,-0.03,1.14
88.8,4.56,-27.37,844.97,0,0,0,-0.02,-0.03,1.2
88.9,4.01,-27.1,845.97,0,0,0,-0.02,-0.02,0.97
89,3.19,-26.69,846.97,0,0,0,-0.03,0,0.85
89.1,4.44,-26.57,847.97,0,0,0,-0.03,0,0.86
89.2,5.07,-26.52,848.97,0,0,0,-0.04,-0.02,0.84
89.3,4.28,-26.68,849.97,0,0,0,-0.05,-0.03,0.8
89.4,4.1,-26.66,850.97,0,0,0,-0.04,-0.03,0.86
89.5,2.85,-26.35,851.97,0,0,0,-0.03,-0.04,1
89.6,2.9,-26.17,852.97,0,0,0,-0.04,-0.03,1.03
89.7,3.02,-25.83,853.97,0,0,0,-0.05,-0.03,0.98
89.8,3.54,-26.15,854.97,0,0,0,-0.04,-0.03,0.97
89.9,3.87,-26.35,855.97,0,0,0,-0.03,-0.02,0.98
90,2.53,-26.5,856.97,0,0,0,-0.03,-0.01,0.89
90.1,2.31,-26.5,857.97,0,0,0,-0.03,0,0.81
90.2,1.48,-26,858.97,0,0,0,-0.03,0,0.81
90.3,1.73,-26.56,859.97,0,0,0,-0.02,-0.01,0.87
90.4,2.33,-27.89,860.97,0,0,0,-0.03,-0.02,0.92
90.5,2.81,-26.45,861.97,0,0,0,-0.05,-0.03,0.93
90.6,3.19,-25.32,862.97,0,0,0,-0.05,-0.04,1
90.7,3.19,-25.6,863.97,0,0,0,-0.04,-0.04,1.05
90.8,3.19,-25.66,864.97,0,0,0,-0.04,-0.03,1.02
90.9,5.58,-27.71,865.97,0,0,0,-0.03,-0.02,0.93
91,4.87,-27.09,866.97,0,0,0,-0.03,-0.02,0.87
91.1,2.67,-25.15,867.97,0,0,0,-0.04,-0.01,0.85
91.2,2.5,-26.02,868.97,0,0,0,-0.03,-0.01,0.84
91.3,2.33,-26.86,869.97,0,0,0,-0.04,-0.02,0.84
91.4,3.65,-25.81,870.97,0,0,0,-0.03,-0.02,0.9
91.5,4.04,-25.49,871.97,0,0,0,-0.03,-0.02,0.97
91.6,2.5,-26.35,872.97,0,0,0,-0.04,-0.03,0.99
91.7,2.57,-26.35,873.97,0,0,0,-0.04,-0.03,0.98
91.8,2.85,-26.35,874.97,0,0,0,-0.04,-0.03,0.97
91.9,3.23,-26.42,875.97,0,0,0,-0.04,-0.03,0.95
92,3.7,-26.52,876.97,0.01,0,0,-0.04,-0.02,0.89
92.1,4.32,-27.38,877.97,0.01,0,0,-0.03,-0.02,0.87
92.2,4.56,-27.71,878.97,0,0,0,-0.03,-0.01,0.9
92.3,3.04,-26.88,879.97,0,0,0,-0.03,-0.02,0.92
92.4,2.92,-26.77,880.97,0,0,0,-0.04,-0.02,0.93
92.5,2.33,-26.17,881.97,-0.01,0,0,-0.04,-0.03,0.96
92.6,3.16,-26.31,882.97,-0.01,0,0,-0.03,-0.03,0.96
92.7,4.39,-26.52,883.97,0,0,0,-0.04,-0.03,0.94
92.8,3.93,-26.97,884.97,0,0,0,-0.04,-0.03,0.92
92.9,3.7,-27.2,885.97,0,0,0,-0.04,-0.03,0.9
93,4.5,-27.04,886.97,0,0,0,-0.04,-0.03,0.91
93.1,4.4,-26.96,887.97,0.01,0,0,-0.03,-0.02,0.91
93.2,2.67,-26.17,888.97,0.01,0,0,-0.04,-0.02,0.93
93.3,3.27,-25.94,889.97,0,0,0,-0.03,-0.02,0.95
93.4,4.39,-25.49,890.97,0,0,0,-0.03,-0.02,0.92
93.5,3.86,-26.02,891.97,0,0,0,-0.04,-0.02,0.92
93.6,3.53,-26.35,892.97,-0.01,0,0,-0.04,-0.02,0.91
93.7,3.53,-25.45,893.97,0,0,0,-0.04,-0.02,0.91
93.8,3.51,-25.36,894.97,0,0,0,-0.04,-0.03,0.91
93.9,3.02,-26.52,895.97,0,0,0,-0.04,-0.03,0.93
94,3.67,-26.97,896.97,0,0,0,-0.04,-0.03,0.94
94.1,5.24,-28.06,897.97,0.01,0,0,-0.04,-0.03,0.94
94.2,4.18,-27.38,898.97,0.01,0,0,-0.04,-0.02,0.94
94.3,3.36,-26.86,899.97,0,0,0,-0.03,-0.02,0.92
94.4,4.06,-26.72,900.97,0,0,0,-0.03,-0.02,0.91
94.5,4.21,-26.69,901.97,0,0,0,-0.03,-0.02,0.9
94.6,3.19,-24.64,902.97,0,0,0,-0.03,-0.02,0.9
94.7,3.23,-25.01,903.97,0,0,0,-0.04,-0.02,0.91
94.8,3.36,-26.17,904.97,0,0,0,-0.04,-0.03,0.92
94.9,3.27,-26.43,905.97,0,0,0,-0.04,-0.03,0.94
95,3.19,-26.69,906.97,0,0,0,-0.04,-0.03,0.94
95.1,3.32,-26.82,907.97,0,0,0,-0.04,-0.03,0.95
95.2,3.36,-26.86,908.97,0,0,0,-0.04,-0.02,0.95
95.3,4.56,-26.35,909.97,0,0,0,-0.03,-0.02,0.93
95.4,4.16,-26.28,910.97,0,0,0,-0.03,-0.02,0.9
95.5,2.5,-26,911.97,0,0,0,-0.03,-0.02,0.89
95.6,2.66,-26.16,912.97,0,0,0,-0.03,-0.02,0.89
95.7,2.85,-26.35,913.97,0,0,0,-0.03,-0.02,0.9
95.8,3.22,-25.98,914.97,0,0,0,-0.04,-0.02,0.93
95.9,3.36,-25.83,915.97,0,0,0,-0.03,-0.02,0.94
96,5.21,-27.01,916.97,0,0,0,-0.04,-0.03,0.95
96.1,4.95,-26.89,917.97,0,0,0,-0.04,-0.02,0.95
96.2,3.19,-26,918.97,0,0,0,-0.04,-0.03,0.94
96.3,3.26,-26.63,919.97,0,0,0,-0.04,-0.02,0.92
96.4,3.36,-27.54,920.97,0,0,0,-0.03,-0.02,0.91
96.5,2.9,-26.63,921.97,0,0,0,-0.04,-0.02,0.9
96.6,2.67,-26.17,922.97,0,0,0,-0.04,-0.02,0.9
96.7,3.15,-25.38,923.97,0,0,0,-0.04,-0.02,0.91
96.8,3.19,-25.47,924.97,0,0,0,-0.04,-0.02,0.93
96.9,3.19,-27.03,925.97,0,0,0,-0.03,-0.02,0.94
97,3.37,-27.09,926.97,0,0,0,-0.04,-0.02,0.95
97.1,3.7,-27.2,927.97,0,0,0,-0.03,-0.02,0.94
97.2,3.7,-26.36,928.97,0,0,0,-0.04,-0.03,0.93
97.3,3.7,-25.83,929.97,0,0,0,-0.03,-0.03,0.92
97.4,3.55,-25.08,930.97,0,0,0,-0.04,-0.02,0.91
97.5,3.51,-25.01,931.97,0,0,0,-0.03,-0.02,0.91
97.6,2.85,-26,932.97,0,0,0,-0.04,-0.02,0.91
97.7,3.2,-26.16,933.97,0,0,0,-0.03,-0.02,0.92
97.8,4.04,-26.52,934.97,0,0,0,-0.04,-0.02,0.92
97.9,3.95,-26.42,935.97,0,0,0,-0.04,-0.02,0.93
98,3.87,-26.35,936.97,0,0,0,-0.04,-0.02,0.94
98.1,4.01,-26.77,937.97,0,0,0,-0.04,-0.02,0.93
98.2,4.04,-26.86,938.97,0,0,0,-0.04,-0.03,0.93
98.3,4.9,-25.66,939.97,0,0,0,-0.03,-0.02,0.92
98.4,4.19,-25.87,940.97,0,0,0,-0.04,-0.02,0.92
98.5,1.99,-26.52,941.97,0,0,0,-0.04,-0.02,0.92
98.6,3.21,-25.82,942.97,0,0,0,-0.03,-0.02,0.92
98.7,4.39,-25.15,943.97,0,0,0,-0.04,-0.02,0.92
98.8,3.59,-26.47,944.97,0,0,0,-0.03,-0.02,0.92
98.9,3.36,-26.86,945.97,0,0,0,-0.04,-0.02,0.93
99,3.36,-26.52,946.97,0,0,0,-0.04,-0.02,0.92
99.1,3.29,-26.25,947.97,0,0,0,-0.04,-0.02,0.92
99.2,3.02,-25.15,948.97,0,0,0,-0.04,-0.02,0.92
99.3,2.78,-25.85,949.97,0,0,0,-0.04,-0.02,0.92
99.4,2.5,-26.69,950.97,0,0,0,-0.04,-0.02,0.93
99.5,3.36,-26.81,951.97,0,0,0,-0.04,-0.02,0.93
99.6,3.7,-26.86,952.97,0,0,0,-0.03,-0.02,0.92
99.7,2.19,-26.36,953.97,0,0,0,-0.04,-0.02,0.93
99.8,2.28,-26.46,954.97,0,0,0,-0.04,-0.02,0.92
99.9,3.02,-27.2,955.97,0,0,0,-0.04,-0.02,0.92
100,3.98,-26.65,956.97,0,0,0,-0.03,-0.02,0.92
100.1,5.41,-25.83,957.97,0,0,0,-0.04,-0.02,0.92
100.2,4.39,-26.17,958.97,0,0,0,-0.04,-0.03,0.92
100.3,3.87,-26.35,959.97,0,0,0,-0.04,-0.02,0.93
100.4,3.71,-26.82,960.97,0,0,0,-0.04,-0.02,0.92
100.5,3.67,-26.86,961.97,0,0,0,-0.04,-0.02,0.93
100.6,3.36,-26.86,962.97,0,0,0,-0.03,-0.03,0.93
100.7,3,-26.74,963.97,0,0,0,-0.04,-0.02,0.93
100.8,2.33,-26.52,964.97,0,0,0,-0.04,-0.02,0.93
100.9,3.38,-26.94,965.97,0,0,0,-0.03,-0.02,0.92
101,4.04,-27.2,966.97,0,0,0,-0.04,-0.02,0.91
101.1,2.54,-26.6,967.97,0,0,0,-0.04,-0.02,0.92
101.2,2.33,-26.53,968.97,0,0,0,-0.03,-0.02,0.92
101.3,2.33,-26.86,969.97,0,0,0,-0.04,-0.02,0.92
101.4,2.48,-26.71,970.97,0,0,0,-0.04,-0.02,0.93
101.5,2.85,-26.35,971.97,0,0,0,-0.04,-0.03,0.93
101.6,3.13,-27.4,972.97,0,0,0,-0.04,-0.02,0.92
101.7,3.36,-28.23,973.97,0,0,0,-0.04,-0.02,0.92
101.8,4.2,-25.98,974.97,0,0,0,-0.03,-0.02,0.93
101.9,4.39,-25.49,975.97,0,0,0,-0.04,-0.02,0.91
102,3.53,-25.32,976.97,0,0,0,-0.04,-0.02,0.92
102.1,3.45,-25.74,977.97,0,0,0,-0.03,-0.02,0.92
102.2,3.19,-27.03,978.97,0,0,0,-0.03,-0.02,0.92
102.3,3.36,-26.68,979.97,0,0,0,-0.04,-0.02,0.92
102.4,3.53,-26.35,980.97,0,0,0,-0.03,-0.03,0.93
102.5,4.19,-25.69,981.97,0,0,0,-0.04,-0.02,0.92
102.6,4.39,-25.49,982.97,0,0,0,-0.04,-0.02,0.93
102.7,3.53,-26.69,983.97,0,0,0,-0.04,-0.02,0.93
102.8,3.3,-26.66,984.97,0,0,0,-0.03,-0.02,0.92
102.9,2.33,-26.52,985.97,0,0,0,-0.04,-0.02,0.92
103,2.18,-26.98,986.97,0,0,0,-0.04,-0.02,0.93
103.1,1.99,-27.54,987.97,0,0,0,-0.04,-0.03,0.93
103.2,2.73,-26.32,988.97,0,0,0,-0.04,-0.02,0.93
103.3,3.02,-25.83,989.97,0,0,0,-0.04,-0.02,0.93
103.4,4.52,-26,990.97,0,0,0,-0.04,-0.02,0.94
103.5,4.27,-25.86,991.97,0,0,0,-0.04,-0.02,0.92
103.6,2.5,-24.98,992.97,0,0,0,-0.04,-0.02,0.93
103.7,3.39,-25.59,993.97,0,0,0,-0.04,-0.02,0.92
103.8,4.73,-26.52,994.97,0,0,0,-0.04,-0.02,0.92
103.9,3.25,-26.63,995.97,0,0,0,-0.04,-0.02,0.92
104,2.5,-26.69,996.97,0,0,0,-0.04,-0.02,0.92
104.1,3.61,-25.9,997.97,0,0,0,-0.04,-0.02,0.93
104.2,3.66,-25.85,998.97,0,0,0,-0.04,-0.02,0.92
104.3,3.19,-26,999.97,0,0,0,-0.04,-0.02,0.92
104.4,3.25,-26.42,1000.97,0,0,0,-0.04,-0.02,0.93
104.5,3.36,-27.2,1001.97,0,0,0,-0.04,-0.02,0.93
104.6,3.46,-26.47,1002.97,0,0,0,-0.04,-0.03,0.93
104.7,3.53,-26,1003.97,0,0,0,-0.04,-0.02,0.92
104.8,2.03,-24.21,1004.97,0,0,0,-0.03,-0.03,0.93
104.9,1.89,-24.04,1005.97,0,0,0,-0.04,-0.02,0.92
105,4.04,-26.86,1006.97,0,0,0,-0.04,-0.02,0.93
105.1,3.89,-26.51,1007.97,0,0,0,-0.03,-0.02,0.92
105.2,3.53,-25.66,1008.97,0,0,0,-0.03,-0.02,0.93
105.3,3.24,-26.9,1009.97,0.01,0,0,-0.04,-0.02,0.92
105.4,3.02,-27.89,1010.97,0.01,0,0,-0.03,-0.02,0.93
105.5,3.44,-26.62,1011.97,0,0,0,-0.04,-0.03,0.93
105.6,3.53,-26.35,1012.97,0,0,0,-0.04,-0.02,0.92
105.7,3.53,-27.37,1013.97,0,0,0,-0.04,-0.02,0.92
105.8,3.12,-27.29,1014.97,0,0,0,-0.04,-0.03,0.92
105.9,1.82,-27.03,1015.97,0,0,0,-0.04,-0.02,0.92
106,2.68,-27.03,1016.97,-0.01,0,0,-0.04,-0.03,0.92
106.1,3.53,-27.03,1017.97,0,0,0,-0.04,-0.02,0.92
106.2,3.13,-27.43,1018.97,0,0,0,-0.04,-0.02,0.93
106.3,3.02,-27.54,1019.97,0,0,0,-0.04,-0.02,0.93
106.4,3.87,-26.35,1020.97,0,0,0,-0.04,-0.03,0.92
106.5,3.74,-26.22,1021.97,0,0,0,-0.04,-0.02,0.92
106.6,3.19,-25.66,1022.97,0,0,0,-0.03,-0.02,0.92
106.7,3.34,-26.28,1023.97,0,0,0,-0.04,-0.02,0.92
106.8,3.53,-27.03,1024.97,0,0,0,-0.03,-0.02,0.92
106.9,3.29,-26.79,1025.97,0,0,0,-0.04,-0.03,0.92
107,3.19,-26.69,1026.97,0,0,0,-0.04,-0.02,0.92
107.1,3.69,-25.52,1027.97,0,0,0,-0.03,-0.02,0.92
107.2,3.86,-25.65,1028.97,0,0,0,-0.04,-0.02,0.92
107.3,4.9,-26.69,1029.97,0,0,0,-0.04,-0.02,0.93
107.4,4.35,-26.41,1030.97,0,0,0,-0.04,-0.02,0.93
107.5,3.53,-26,1031.97,0,0,0,-0.04,-0.02,0.93
107.6,2.62,-26.23,1032.97,0,0,0,-0.04,-0.02,0.93
107.7,2.16,-26.35,1033.97,0,0,0,-0.04,-0.02,0.92
107.8,3.75,-25.71,1034.97,0,0,0,-0.04,-0.02,0.92
107.9,3.92,-25.74,1035.97,0,0,0,-0.04,-0.02,0.92
108,4.39,-26.52,1036.97,0,0,0,-0.04,-0.02,0.92
108.1,3.67,-26.28,1037.97,0,0,0,-0.04,-0.02,0.93
108.2,2.33,-25.83,1038.97,0,0,0,-0.04,-0.02,0.92
108.3,3.79,-26.46,1039.97,0,0,0,-0.04,-0.02,0.93
108.4,4.73,-26.86,1040.97,0,0,0,-0.04,-0.02,0.92
108.5,4.13,-26.86,1041.97,0,0,0,-0.04,-0.02,0.93
108.6,4.01,-26.86,1042.97,0,0,0,-0.04,-0.02,0.92
108.7,2.85,-26.69,1043.97,0,0,0,-0.04,-0.02,0.93
108.8,3.2,-27.34,1044.97,0,0,0,-0.04,-0.03,0.93
108.9,4.04,-28.91,1045.97,0,0,0,-0.03,-0.02,0.92
109,3.19,-27.68,1046.97,0,0,0,-0.03,-0.02,0.89
109.1,2.5,-26.69,1047.97,0,0,0,-0.03,0,0.69
109.2,2.78,-26.69,1048.97,0,0,0,-0.03,0.02,0.66
109.3,2.85,-26.69,1049.97,0,0,0,-0.04,-0.01,0.9
109.4,2.67,-26.52,1050.97,0,0,0,-0.03,-0.04,1.15
109.5,3.12,-26.8,1051.97,0,0,0,-0.04,-0.07,1.24
109.6,4.56,-27.71,1052.97,0,0,0,-0.04,-0.07,1.17
109.7,3.61,-27.29,1053.97,0,0,0,-0.04,-0.06,1.01
109.8,2.67,-26.86,1054.97,0,0,0,-0.05,-0.05,0.92
109.9,3.59,-26.99,1055.97,0,0,0,-0.04,-0.04,0.9
110,3.87,-27.03,1056.97,0,0,0,-0.04,-0.03,0.96
110.1,3.53,-26.35,1057.97,0,0,0,-0.05,-0.02,0.93
110.2,3.59,-26.47,1058.97,0,0,0,-0.03,-0.01,0.89
110.3,3.87,-27.03,1059.97,0,0,0,-0.04,0,0.88
110.4,3.87,-26.26,1060.97,0,0,0,-0.02,0.01,0.87
110.5,3.87,-25.32,1061.97,0,0,0,-0.01,0.01,0.81
110.6,3.63,-26.05,1062.97,0,0,0,-0.02,0.01,0.73
110.7,3.53,-26.35,1063.97,0,0,0,-0.03,0,0.76
110.8,3.7,-26.85,1064.97,0,0,0,-0.03,0,0.83
110.9,3.72,-26.75,1065.97,0,0,0,-0.02,-0.01,0.82
111,3.87,-26,1066.97,0,0,0,-0.04,-0.03,0.88
111.1,3.26,-25.94,1067.97,0,0,0,-0.04,-0.05,1.09
111.2,2.33,-25.83,1068.97,0,0,0,-0.04,-0.05,1.25
111.3,3.01,-26.97,1069.97,0,0,0,-0.06,-0.07,1.2
111.4,3.36,-27.54,1070.97,0,0,0,-0.05,-0.06,1.04
111.5,2.57,-26.44,1071.97,0,0,0,-0.05,-0.04,0.9
111.6,2.63,-26.42,1072.97,0,0,0,-0.03,0,0.84
111.7,4.04,-27.2,1073.97,0,0,0,-0.03,0.01,0.8
111.8,3.98,-27.02,1074.97,0,0,0,-0.02,0.01,0.78
111.9,3.87,-26.69,1075.97,0,0,0,-0.02,0,0.83
112,4.29,-26.69,1076.97,0,0,0,-0.02,-0.01,0.89
112.1,4.56,-26.69,1077.97,0,0,0,-0.03,-0.01,0.88
112.2,2.47,-26.69,1078.97,0,0,0,-0.04,-0.01,0.84
112.3,2.2,-26.68,1079.97,0,0,0,-0.03,0,0.87
112.4,3.36,-26.52,1080.97,0,0,0,-0.03,-0.01,0.93
112.5,3.46,-26.32,1081.97,0,0,0,-0.04,-0.03,1
112.6,3.7,-25.83,1082.97,0,0,0,-0.05,-0.06,1.04
112.7,4.27,-26.4,1083.97,0,0,0,-0.05,-0.07,1.07
112.8,4.73,-26.86,1084.97,0,0,0,-0.05,-0.06,1.05
112.9,3.89,-26.86,1085.97,0,0,0,-0.04,-0.04,0.96
113,3.7,-26.86,1086.97,0,0,0,-0.04,-0.01,0.89
113.1,1.99,-25.15,1087.97,0,0,0,-0.02,0,0.87
113.2,2.6,-25.35,1088.97,0,0,0,-0.02,0,0.87
113.3,4.56,-26,1089.97,0,0,0,-0.03,0,0.86
113.4,3.95,-26.78,1090.97,0,0,0,-0.03,-0.01,0.85
113.5,3.36,-27.54,1091.97,0,0,0,-0.03,-0.01,0.85
113.6,2.7,-27.67,1092.97,0,0,0,-0.03,-0.01,0.83
113.7,2.5,-27.71,1093.97,0,0,0,-0.03,-0.01,0.85
113.8,3.02,-25.83,1094.97,0,0,0,-0.04,-0.02,0.95
113.9,3.24,-25.99,1095.97,0,0,0,-0.04,-0.04,1.05
114,4.21,-26.69,1096.97,0,0,0,-0.05,-0.06,1.09
114.1,4.06,-27.15,1097.97,0,0,0,-0.06,-0.06,1.05
114.2,3.87,-27.71,1098.97,0,0,0,-0.05,-0.05,0.99
114.3,3.87,-26.74,1099.97,0,0,0,-0.04,-0.02,0.93
114.4,3.87,-26.35,1100.97,0,0,0,-0.03,-0.01,0.86
114.5,3.37,-27.18,1101.97,0,0,0,-0.02,0.01,0.83
114.6,3.13,-27.16,1102.97,0,0,0,-0.03,0,0.84
114.7,1.65,-26.86,1103.97,0,0,0,-0.03,-0.01,0.87
114.8,2.12,-26.66,1104.97,0,0,0,-0.03,-0.02,0.86
114.9,2.85,-26.35,1105.97,0,0,0,-0.03,-0.02,0.86
115,3.41,-26.91,1106.97,0,0,0,-0.04,-0.01,0.94
115.1,3.7,-27.2,1107.97,0,0,0,-0.03,-0.02,1
115.2,3.07,-26.89,1108.97,0,0,0,-0.04,-0.04,1.03
115.3,3.11,-26.79,1109.97,0,0,0,-0.05,-0.05,1
115.4,4.21,-26,1110.97,0,0,0,-0.04,-0.05,0.97
115.5,3.86,-26.6,1111.97,0,0,0,-0.04,-0.03,0.93
115.6,3.19,-27.71,1112.97,0,0,0,-0.04,-0.01,0.89
115.7,2.98,-27.71,1113.97,0,0,0,-0.03,0,0.86
115.8,2.85,-27.71,1114.97,0,0,0,-0.02,0,0.87
115.9,2.85,-26.82,1115.97,0,0,0,-0.03,0,0.88
116,2.87,-26.68,1116.97,0,0,0,-0.03,-0.02,0.89
116.1,3.53,-26.35,1117.97,0,0,0,-0.04,-0.02,0.91
116.2,3.63,-26.55,1118.97,0,0,0,-0.04,-0.02,0.94
116.3,3.87,-27.03,1119.97,0,0,0,-0.04,-0.03,0.98
116.4,4.16,-26.75,1120.97,0,0,0,-0.04,-0.03,0.98
116.5,4.39,-26.52,1121.97,0,0,0,-0.04,-0.04,0.96
116.6,4.1,-25.96,1122.97,0,0,0,-0.04,-0.04,0.95
116.7,4.04,-25.83,1123.97,0,0,0,-0.04,-0.03,0.93
116.8,2.5,-26.69,1124.97,0,0,0,-0.04,-0.01,0.89
116.9,2.59,-26.61,1125.97,0,0,0,-0.03,-0.01,0.89
117,2.85,-26.35,1126.97,0,0,0,-0.03,-0.01,0.87
117.1,3.28,-26.26,1127.97,0,0,0,-0.03,-0.01,0.88
117.2,3.7,-26.17,1128.97,0,0,0,-0.04,-0.02,0.9
117.3,3.44,-26.44,1129.97,0,0,0,-0.04,-0.02,0.91
117.4,3.36,-26.52,1130.97,0,0,0,-0.04,-0.03,0.95
117.5,1.82,-27.37,1131.97,0,0,0,-0.04,-0.03,0.96
117.6,2.17,-27.15,1132.97,0,0,0,-0.04,-0.03,0.97
117.7,3.7,-26.17,1133.97,0,0,0,-0.04,-0.03,0.96
117.8,3.86,-26.33,1134.97,0,0,0,-0.04,-0.03,0.94
117.9,4.04,-26.52,1135.97,0,0,0,-0.03,-0.02,0.91
118,2.82,-27.01,1136.97,0,0,0,-0.03,-0.01,0.89
118.1,2.33,-27.2,1137.97,0,0,0,-0.03,-0.01,0.88
118.2,3.67,-27.54,1138.97,0,0,0,-0.03,-0.01,0.87
118.3,3.72,-27.38,1139.97,0,0,0,-0.03,-0.02,0.89
118.4,3.87,-26.35,1140.97,0,0,0,-0.03,-0.02,0.91
118.5,3.6,-26.35,1141.97,0,0,0,-0.04,-0.02,0.94
118.6,3.19,-26.35,1142.97,0,0,0,-0.04,-0.03,0.96
118.7,3.98,-26.01,1143.97,0,0,0,-0.04,-0.03,0.97
118.8,4.39,-25.83,1144.97,0,0,0,-0.04,-0.03,0.96
118.9,2.96,-26.31,1145.97,0,0,0,-0.04,-0.03,0.94
119,2.89,-26.28,1146.97,0,0,0,-0.04,-0.02,0.92
119.1,3.36,-25.49,1147.97,0,0,0,-0.03,-0.02,0.9
119.2,3.12,-26.08,1148.97,0,0,0,-0.03,-0.01,0.89
119.3,2.67,-27.2,1149.97,0,0,0,-0.03,-0.01,0.89
119.4,2.57,-27.31,1150.97,0,0,0,-0.03,-0.01,0.9
119.5,2.5,-27.37,1151.97,0,0,0,-0.04,-0.02,0.92
119.6,2.95,-26.63,1152.97,0,0,0,-0.04,-0.03,0.94
119.7,3.03,-26.5,1153.97,0,0,0,-0.04,-0.03,0.95
119.8,3.53,-26,1154.97,0,0,0,-0.04,-0.03,0.95
119.9,3.48,-26.25,1155.97,0,0,0,-0.04,-0.03,0.95
120,3.36,-26.86,1156.97,0,0,0,-0.04,-0.03,0.93
120.1,3.45,-26.77,1157.97,0,0,0,-0.04,-0.02,0.92
120.2,3.53,-26.69,1158.97,0,0,0,-0.04,-0.02,0.91
120.3,3.81,-26.69,1159.97,0,0,0,-0.04,-0.01,0.9
120.4,3.87,-26.69,1160.97,0,0,0,-0.03,-0.02,0.9
120.5,2.67,-27.2,1161.97,0,0,0,-0.04,-0.02,0.91
120.6,2.71,-27.33,1162.97,0,0,0,-0.03,-0.02,0.92
120.7,2.85,-27.71,1163.97,0,0,0,-0.04,-0.02,0.93
120.8,3.28,-27.11,1164.97,0,0,0,-0.04,-0.03,0.94
120.9,3.7,-26.52,1165.97,0,0,0,-0.04,-0.03,0.94
121,3.44,-26.52,1166.97,0,0,0,-0.03,-0.03,0.94
121.1,3.36,-26.52,1167.97,0,0,0,-0.04,-0.03,0.92
121.2,2.85,-26,1168.97,0,0,0,-0.04,-0.02,0.92
121.3,2.94,-26.04,1169.97,0,0,0,-0.03,-0.02,0.91
121.4,3.36,-26.17,1170.97,0,0,0,-0.04,-0.02,0.91
121.5,3.51,-26.17,1171.97,0,0,0,-0.03,-0.02,0.91
121.6,3.7,-26.17,1172.97,0,0,0,-0.04,-0.02,0.91
121.7,3.7,-26.91,1173.97,0,0,0,-0.03,-0.02,0.92
121.8,3.7,-27.2,1174.97,0,0,0,-0.04,-0.03,0.92
121.9,3.87,-26.37,1175.97,0,0,0,-0.03,-0.03,0.93
122,3.71,-26.41,1176.97,0,0,0,-0.04,-0.03,0.93
122.1,2.67,-26.86,1177.97,0,0,0,-0.04,-0.03,0.94
122.2,2.94,-26.72,1178.97,0,0,0,-0.04,-0.02,0.93
122.3,3.36,-26.52,1179.97,0,0,0,-0.04,-0.02,0.93
122.4,3.92,-27.53,1180.97,0,0,0,-0.04,-0.02,0.92
122.5,4.21,-28.06,1181.97,0,0,0,-0.03,-0.02,0.91
122.6,2.48,-25.38,1182.97,0,0,0,-0.03,-0.02,0.92
122.7,2.44,-25.2,1183.97,0,0,0,-0.03,-0.02,0.92
122.8,3.7,-25.83,1184.97,0,0,0,-0.03,-0.02,0.92
122.9,3.35,-26.3,1185.97,0,0,0,-0.03,-0.02,0.92
123,2.67,-27.2,1186.97,0,0,0,-0.04,-0.02,0.93
123.1,3.92,-27.2,1187.97,0,0,0,-0.04,-0.03,0.93
123.2,4.73,-27.2,1188.97,0,0,0,-0.04,-0.03,0.93
123.3,3.39,-26.46,1189.97,0,0,0,-0.04,-0.02,0.93
123.4,3.21,-26.35,1190.97,0,0,0,-0.03,-0.03,0.92
123.5,4.04,-26.52,1191.97,0,0,0,-0.04,-0.02,0.92
123.6,4.04,-26.22,1192.97,0,0,0,-0.04,-0.02,0.92
123.7,4.04,-25.49,1193.97,0,0,0,-0.03,-0.02,0.92
123.8,3,-25.21,1194.97,0,0,0,-0.04,-0.02,0.91
123.9,2.16,-24.98,1195.97,0,0,0,-0.04,-0.02,0.91
124,3.14,-26.52,1196.97,0,0,0,-0.03,-0.02,0.92
124.1,3.36,-26.86,1197.97,0,0,0,-0.04,-0.02,0.93
124.2,2.85,-26.35,1198.97,0,0,0,-0.04,-0.02,0.93
124.3,2.76,-26.27,1199.97,0,0,0,-0.04,-0.03,0.94
124.4,2.5,-26,1200.97,0,0,0,-0.04,-0.02,0.94
124.5,3.1,-26.77,1201.97,0,0,0,-0.04,-0.02,0.93
124.6,3.7,-27.54,1202.97,0,0,0,-0.04,-0.02,0.93
124.7,3.7,-25.98,1203.97,0,0,0,-0.04,-0.02,0.91
124.8,3.7,-25.49,1204.97,0,0,0,-0.04,-0.02,0.91
124.9,3.02,-26.17,1205.97,-0.01,0,0,-0.03,-0.02,0.92
125,2.89,-26.49,1206.97,0,0,0,-0.04,-0.02,0.92
125.1,2.33,-27.89,1207.97,0,0,0,-0.03,-0.02,0.92
125.2,2.94,-26.82,1208.97,0,0,0,-0.04,-0.02,0.92
125.3,3.7,-25.49,1209.97,0,0,0,-0.04,-0.03,0.93
125.4,4.06,-26.83,1210.97,0,0,0,-0.04,-0.02,0.93
125.5,4.21,-27.37,1211.97,0,0,0,-0.03,-0.02,0.93
125.6,3.71,-27.21,1212.97,0,0,0,-0.04,-0.02,0.93
125.7,3.45,-27.09,1213.97,0,0,0,-0.04,-0.02,0.92
125.8,1.82,-26.35,1214.97,0,0,0,-0.04,-0.02,0.92
125.9,2.76,-26.35,1215.97,0,0,0,-0.03,-0.02,0.92
126,4.21,-26.35,1216.97,0,0,0,-0.04,-0.02,0.92
126.1,4.21,-26.57,1217.97,0,0,0,-0.03,-0.02,0.92
126.2,4.21,-26.69,1218.97,0,0,0,-0.03,-0.02,0.92
126.3,4.69,-26.22,1219.97,0,0,0,-0.04,-0.02,0.92
126.4,4.61,-26.16,1220.97,0,0,0,-0.04,-0.02,0.93
126.5,3.19,-26,1221.97,0,0,0,-0.04,-0.02,0.92
126.6,3.07,-26.35,1222.97,0,0,0,-0.04,-0.02,0.93
126.7,2.85,-27.03,1223.97,0,0,0,-0.04,-0.03,0.93
126.8,2.85,-28.06,1224.97,0,0,0,-0.04,-0.02,0.93
126.9,2.85,-28.74,1225.97,0,0,0,-0.03,-0.02,0.92
127,3.29,-26.52,1226.97,0,0,0,-0.04,-0.02,0.91
127.1,3.36,-26.19,1227.97,0,0,0,-0.03,-0.02,0.92
127.2,3.19,-26.69,1228.97,0,0,0,-0.04,-0.02,0.91
127.3,3.19,-26.49,1229.97,0,0,0,-0.04,-0.02,0.91
127.4,3.19,-26,1230.97,0,0,0,-0.03,-0.02,0.92
127.5,3.47,-26.29,1231.97,0,0,0,-0.03,-0.02,0.92
127.6,3.7,-26.52,1232.97,0,0,0,-0.04,-0.02,0.93
127.7,4.4,-26.66,1233.97,0,0,0,-0.04,-0.02,0.94
127.8,4.56,-26.69,1234.97,0,0,0,-0.04,-0.02,0.93
127.9,3.19,-26,1235.97,0,0,0,-0.04,-0.02,0.92
128,3.11,-26,1236.97,0,0,0,-0.03,-0.02,0.92
128.1,2.85,-26,1237.97,0,0,0,-0.04,-0.02,0.92
128.2,2.85,-26,1238.97,0,0,0,-0.03,-0.02,0.93
128.3,2.85,-26,1239.97,0,0,0,-0.04,-0.02,0.92
128.4,4.67,-27.31,1240.97,0,0,0,-0.04,-0.02,0.92
128.5,5.24,-27.71,1241.97,0,0,0,-0.04,-0.02,0.93
128.6,2.67,-27.2,1242.97,0,0,0,-0.04,-0.02,0.93
128.7,2.89,-27.11,1243.97,0,0,0,-0.03,-0.03,0.92
128.8,3.87,-26.69,1244.97,0,0,0,-0.04,-0.02,0.93
128.9,3.95,-26.77,1245.97,0,0,0,-0.03,-0.02,0.92
129,4.04,-26.86,1246.97,0,0,0,-0.04,-0.02,0.92
129.1,3.8,-26.86,1247.97,0,0,0,-0.04,-0.02,0.92
129.2,3.7,-26.86,1248.97,0,0,0,-0.04,-0.02,0.92
129.3,3.2,-26.36,1249.97,0,0,0,-0.04,-0.02,0.92
129.4,3.19,-26.3,1250.97,0,0,0,-0.04,-0.02,0.92
129.5,3.19,-26,1251.97,0,0,0,-0.04,-0.02,0.92
129.6,3.32,-26.41,1252.97,0,0,0,-0.04,-0.02,0.92
129.7,3.53,-27.03,1253.97,0,0,0,-0.04,-0.02,0.92
129.8,3.53,-27.03,1254.97,0,0,0,-0.04,-0.02,0.93
129.9,3.53,-27.03,1255.97,0,0,0,-0.04,-0.02,0.93
130,3.22,-26.72,1256.97,0,0,0,-0.04,-0.02,0.93
130.1,3.15,-26.65,1257.97,0,0,0,-0.03,-0.02,0.92
130.2,2.67,-26.17,1258.97,0,0,0,-0.04,-0.02,0.92
130.3,2.5,-26.35,1259.97,0,0,0,-0.03,-0.02,0.92
130.4,2.16,-26.69,1260.97,0,0,0,-0.04,-0.02,0.91
130.5,2.57,-26.9,1261.97,0,0,0,-0.04,-0.02,0.93
130.6,2.85,-27.03,1262.97,0,0,0,-0.03,-0.02,0.92
130.7,3.59,-28.07,1263.97,0,0,0,-0.03,-0.02,0.92
130.8,3.69,-28.2,1264.97,0,0,0,-0.04,-0.02,0.92
130.9,3.36,-26.52,1265.97,0,0,0,-0.03,-0.02,0.92
131,3.36,-26.61,1266.97,0,0,0,-0.04,-0.02,0.92
131.1,3.36,-26.86,1267.97,0.01,0,0,-0.04,-0.02,0.93
131.2,3.45,-26.2,1268.97,0,0,0,-0.04,-0.03,0.92
131.3,3.53,-25.66,1269.97,0,0,0,-0.03,-0.03,0.92
131.4,4.5,-26.08,1270.97,0,0,0,-0.04,-0.02,0.92
131.5,4.73,-26.17,1271.97,0,0,0,-0.04,-0.02,0.92
131.6,3.53,-27.03,1272.97,0,0,0,-0.03,-0.04,1.01
131.7,3.45,-27.11,1273.97,0,0,0,-0.04,-0.03,0.92
131.8,3.19,-27.37,1274.97,0,0,0,-0.06,-0.02,0.88
131.9,3.61,-26.78,1275.97,0,0,0,-0.05,-0.03,0.99
132,4.04,-26.17,1276.97,0,0,0,-0.03,-0.03,1.05
132.1,3.52,-26.43,1277.97,0,0,0,-0.02,-0.01,0.96
132.2,3.36,-26.52,1278.97,0,0,0,-0.02,0,0.84
132.3,3.19,-27.71,1279.97,0,0,0,-0.02,0.01,0.78
132.4,3.22,-27.68,1280.97,0,0,0,-0.04,0.01,0.77
132.5,3.36,-27.54,1281.97,0,0,0,-0.04,0.01,0.78
132.6,3.74,-26.87,1282.97,0,0,0,-0.01,0,0.78
132.7,4.21,-26,1283.97,0,0,0,-0.03,-0.03,0.82
132.8,3.85,-25.88,1284.97,0,0,0,-0.07,-0.05,1.01
132.9,3.7,-25.83,1285.97,0,0,0,-0.06,-0.04,1.19
133,2.87,-27.33,1286.97,0,0,0,0.02,-0.03,1.26
133.1,2.97,-27.25,1287.97,0,0,0,-0.06,-0.09,1.18
133.2,3.87,-26.35,1288.97,0,0,0,-0.14,-0.08,0.92
133.3,3.87,-25.81,1289.97,0,0,0,0.11,0.04,0.87
133.4,3.87,-24.98,1290.97,0,0,0,-0.14,-0.04,0.82
133.5,3.98,-25.76,1291.97,0,0,0,-0.03,0.02,0.75
133.6,4.04,-26.17,1292.97,0,0,0,0.02,0.04,0.8
133.7,3.42,-26.49,1293.97,0,0,0,-0.04,-0.01,0.88
133.8,3.38,-26.54,1294.97,0,0,0,-0.03,-0.03,0.87
133.9,3.7,-26.86,1295.97,0,0,0,-0.05,-0.02,0.85
134,3.93,-26.98,1296.97,0,0,0,-0.04,0,0.89
134.1,4.39,-27.2,1297.97,0,0,0,-0.01,0.01,0.96
134.2,3.56,-27.2,1298.97,0,0,0,-0.03,-0.02,1
134.3,3.02,-27.2,1299.97,0,0,0,-0.04,-0.05,1.01
134.4,3.46,-26.17,1300.97,0,0,0,-0.06,-0.07,1.03
134.5,3.52,-26.01,1301.97,0,0,0,-0.06,-0.07,1.02
134.6,3.02,-26.17,1302.97,0,0,0,-0.02,0.01,0.89
134.7,2.87,-26.22,1303.97,0,0,0,-0.01,0,0.91
134.8,2.5,-26.35,1304.97,0,0,0,-0.02,-0.01,0.89
134.9,2.97,-26.25,1305.97,0,0,0,-0.03,-0.02,0.86
135,3.36,-26.17,1306.97,0,0,0,-0.05,-0.01,0.84
135.1,3.78,-26.04,1307.97,0,0,0,-0.05,-0.01,0.82
135.2,3.87,-26,1308.97,0,0,0,-0.03,0,0.81
135.3,1.99,-27.89,1309.97,0,0,0,-0.03,-0.01,0.92
135.4,2.07,-27.81,1310.97,0,0,0,-0.03,-0.04,1.03
135.5,2.33,-27.54,1311.97,0,0,0,-0.04,-0.06,1.09
135.6,3.35,-27.54,1312.97,0,0,0,-0.06,-0.06,1.06
135.7,4.39,-27.54,1313.97,0,0,0,-0.06,-0.05,1.01
135.8,4,-26.38,1314.97,0,0,0,-0.05,-0.02,0.95
135.9,3.87,-26,1315.97,0,0,0,-0.03,-0.01,0.88
136,3.7,-26.52,1316.97,0,0,0,-0.02,0,0.83
136.1,3.61,-26.55,1317.97,0,0,0,-0.02,0,0.82
136.2,3.19,-26.69,1318.97,0,0,0,-0.03,-0.01,0.84
136.3,3.26,-27.22,1319.97,0,0,0,-0.04,-0.02,0.85
136.4,3.36,-27.89,1320.97,0,0,0,-0.04,-0.01,0.87
136.5,3.48,-27.28,1321.97,0,0,0,-0.04,-0.02,0.93
136.6,3.53,-27.03,1322.97,0,0,0,-0.04,-0.02,1.02
136.7,4.52,-26.04,1323.97,0,0,0,-0.03,-0.04,1.05
136.8,4.43,-26.18,1324.97,0,0,0,-0.04,-0.05,1.01
136.9,3.53,-27.37,1325.97,0,0,0,-0.05,-0.05,0.96
137,3.2,-27.17,1326.97,0,0,0,-0.05,-0.03,0.92
137.1,2.67,-26.86,1327.97,0,0,0,-0.04,-0.02,0.88
137.2,2.79,-26.52,1328.97,0,0,0,-0.03,0,0.84
137.3,2.85,-26.35,1329.97,0,0,0,-0.02,0,0.86
137.4,3.63,-26.19,1330.97,0,0,0,-0.02,-0.01,0.89
137.5,3.75,-26.17,1331.97,0,0,0,-0.03,-0.01,0.9
137.6,4.39,-26.17,1332.97,0,0,0,-0.04,-0.02,0.93
137.7,3.69,-26.41,1333.97,0,0,0,-0.04,-0.02,0.95
137.8,2.33,-26.86,1334.97,0,0,0,-0.04,-0.02,0.97
137.9,2.54,-26.86,1335.97,0,0,0,-0.04,-0.03,0.97
138,2.67,-26.86,1336.97,0,0,0,-0.04,-0.04,0.96
138.1,3.42,-26.12,1337.97,0,0,0,-0.04,-0.03,0.93
138.2,3.54,-25.99,1338.97,0,0,0,-0.04,-0.03,0.92
138.3,3.87,-25.32,1339.97,0,0,0,-0.04,-0.02,0.91
138.4,4.02,-25.96,1340.97,0,0,0,-0.03,-0.01,0.89
138.5,4.39,-27.54,1341.97,0,0,0,-0.03,-0.01,0.91
138.6,3.82,-26.6,1342.97,0,0,0,-0.03,-0.01,0.9
138.7,3.36,-25.83,1343.97,0,0,0,-0.03,-0.02,0.9
138.8,2.94,-27.37,1344.97,0,0,0,-0.04,-0.03,0.91
138.9,2.85,-27.71,1345.97,0,0,0,-0.04,-0.03,0.93
139,2.85,-26.69,1346.97,0,0,0,-0.04,-0.03,0.95
139.1,2.85,-26.45,1347.97,0,0,0,-0.04,-0.03,0.95
139.2,2.85,-25.66,1348.97,0,0,0,-0.04,-0.04,0.96
139.3,2.33,-26.69,1349.97,0,0,0,-0.04,-0.03,0.94
139.4,1.82,-27.71,1350.97,0,0,0,-0.03,-0.02,0.93
139.5,2.34,-26.67,1351.97,0,0,0,-0.04,-0.01,0.91
139.6,2.5,-26.35,1352.97,0,0,0,-0.04,-0.01,0.89
139.7,2.16,-26.35,1353.97,0,0,0,-0.03,-0.01,0.88
139.8,2.29,-26.35,1354.97,0,0,0,-0.03,-0.02,0.89
139.9,2.85,-26.35,1355.97,0,0,0,-0.03,-0.02,0.9
140,3.23,-26.42,1356.97,0,0,0,-0.03,-0.03,0.93
140.1,3.7,-26.52,1357.97,0,0,0,-0.04,-0.03,0.95
140.2,2.61,-26.4,1358.97,0,0,0,-0.04,-0.03,0.96
140.3,2.16,-26.35,1359.97,0,0,0,-0.04,-0.03,0.96
140.4,3.83,-27.01,1360.97,0,0,0,-0.04,-0.02,0.94
140.5,3.92,-26.94,1361.97,0,0,0,-0.03,-0.02,0.93
140.6,4.21,-26.35,1362.97,0,0,0,-0.03,-0.02,0.9
140.7,4.48,-25.94,1363.97,0,0,0,-0.03,-0.01,0.89
140.8,4.9,-25.32,1364.97,0,0,0,-0.03,-0.02,0.89
140.9,3.66,-26.56,1365.97,0,0,0,-0.03,-0.02,0.9
141,3.02,-27.2,1366.97,0,0,0,-0.04,-0.03,0.91
141.1,4.12,-26.41,1367.97,0,0,0,-0.03,-0.02,0.93
141.2,4.17,-26.39,1368.97,0,0,0,-0.04,-0.03,0.95
141.3,3.7,-26.86,1369.97,0,0,0,-0.04,-0.03,0.95
141.4,3.35,-26.86,1370.97,0,0,0,-0.04,-0.03,0.95
141.5,2.67,-26.86,1371.97,0,0,0,-0.04,-0.03,0.93
141.6,3.4,-26.76,1372.97,0,0,0,-0.04,-0.02,0.92
141.7,3.87,-26.69,1373.97,0,0,0,-0.03,-0.01,0.91
141.8,4.02,-26.84,1374.97,0,0,0,-0.03,-0.01,0.9
141.9,4.03,-26.87,1375.97,0,0,0,-0.03,-0.01,0.9
142,3.7,-27.2,1376.97,0,0,0,-0.04,-0.02,0.91
142.1,3.65,-26.86,1377.97,0,0,0,-0.03,-0.02,0.92
142.2,3.53,-26,1378.97,0,0,0,-0.04,-0.03,0.93
142.3,3.34,-26.57,1379.97,0,0,0,-0.04,-0.03,0.94
142.4,3.19,-27.03,1380.97,0,0,0,-0.04,-0.02,0.94
142.5,2.77,-26.89,1381.97,0,0,0,-0.04,-0.03,0.94
142.6,2.67,-26.86,1382.97,0,0,0,-0.04,-0.03,0.93
142.7,4.9,-24.98,1383.97,0,0,0,-0.04,-0.02,0.93
142.8,4.33,-25.38,1384.97,0,0,0,-0.04,-0.02,0.92
142.9,2.5,-26.69,1385.97,0,0,0,-0.03,-0.02,0.91
143,2.42,-26.95,1386.97,0,0,0,-0.03,-0.02,0.91
143.1,2.33,-27.2,1387.97,0,0,0,-0.03,-0.02,0.91
143.2,3.12,-26.15,1388.97,0,0,0,-0.03,-0.02,0.92
143.3,3.36,-25.83,1389.97,0,0,0,-0.03,-0.03,0.92
143.4,1.99,-26.52,1390.97,0,0,0,-0.04,-0.02,0.93
143.5,2.09,-26.55,1391.97,0,0,0,-0.04,-0.03,0.93
143.6,2.5,-26.69,1392.97,0,0,0,-0.04,-0.03,0.93
143.7,2.35,-26.23,1393.97,0,0,0,-0.04,-0.03,0.94
143.8,2.16,-25.66,1394.97,0,0,0,-0.04,-0.02,0.93
143.9,1.79,-25.3,1395.97,0,0,0,-0.04,-0.02,0.92
144,1.65,-25.15,1396.97,0,0,0,-0.04,-0.02,0.92
144.1,3.65,-26.15,1397.97,0,0,0,-0.03,-0.02,0.91
144.2,3.66,-26.17,1398.97,0,0,0,-0.03,-0.02,0.91
144.3,3.36,-26.17,1399.97,0,0,0,-0.03,-0.02,0.92
144.4,2.95,-25.63,1400.97,0,0,0,-0.04,-0.02,0.91
144.5,2.33,-24.81,1401.97,0,0,0,-0.04,-0.02,0.92
144.6,3.12,-26.5,1402.97,0,0,0,-0.04,-0.03,0.94
144.7,3.53,-27.37,1403.97,0,0,0,-0.04,-0.02,0.94
144.8,2.9,-25.48,1404.97,0,0,0,-0.04,-0.03,0.93
144.9,2.93,-25.43,1405.97,0,0,0,-0.04,-0.02,0.94
145,3.87,-26.69,1406.97,0,0,0,-0.03,-0.02,0.93
145.1,3.16,-27.04,1407.97,0,0,0,-0.04,-0.02,0.92
145.2,1.82,-27.71,1408.97,0,0,0,-0.03,-0.02,0.91
145.3,2.34,-26.99,1409.97,0,0,0,-0.03,-0.02,0.91
145.4,2.67,-26.52,1410.97,0,0,0,-0.04,-0.02,0.91
145.5,2.23,-26.07,1411.97,0,0,0,-0.04,-0.02,0.91
145.6,2.19,-26,1412.97,0,0,0,-0.04,-0.02,0.93
145.7,3.02,-25.83,1413.97,0,0,0,-0.04,-0.02,0.94
145.8,2.72,-26.23,1414.97,0,0,0,-0.04,-0.03,0.93
145.9,1.99,-27.2,1415.97,0,0,0,-0.04,-0.02,0.93
146,3.03,-26.54,1416.97,0,0,0,-0.03,-0.03,0.93
146.1,3.87,-26,1417.97,0,0,0,-0.03,-0.02,0.92
146.2,3.31,-27.13,1418.97,0,0,0,-0.03,-0.02,0.92
146.3,3.19,-27.37,1419.97,0,0,0,-0.04,-0.02,0.91
146.4,2.85,-26.35,1420.97,0,0,0,-0.03,-0.02,0.91
146.5,3.09,-26.67,1421.97,0,0,0,-0.04,-0.02,0.91
146.6,3.87,-27.71,1422.97,0,0,0,-0.04,-0.02,0.92
146.7,3.96,-27.29,1423.97,0,0,0,-0.04,-0.02,0.93
146.8,4.04,-26.86,1424.97,0,0,0,-0.04,-0.02,0.93
146.9,3.12,-27.25,1425.97,0,0,0,-0.04,-0.03,0.93
147,2.85,-27.37,1426.97,0,0,0,-0.04,-0.03,0.93
147.1,3.7,-25.49,1427.97,0,0,0,-0.04,-0.02,0.93
147.2,3.7,-25.88,1428.97,0,0,0,-0.04,-0.02,0.92
147.3,3.7,-27.54,1429.97,-0.01,0,0,-0.03,-0.02,0.92
147.4,3.39,-26.16,1430.97,0,0,0,-0.04,-0.02,0.92
147.5,3.02,-24.46,1431.97,0,0,0,-0.03,-0.02,0.91
147.6,3.26,-25.93,1432.97,0,0,0,-0.04,-0.02,0.92
147.7,3.36,-26.52,1433.97,0,0,0,-0.04,-0.02,0.92
147.8,2.69,-27.19,1434.97,0,0,0,-0.04,-0.02,0.93
147.9,2.81,-27.06,1435.97,0,0,0,-0.03,-0.02,0.93
148,3.7,-26.17,1436.97,0,0,0,-0.03,-0.02,0.93
148.1,3.63,-26.38,1437.97,0,0,0,-0.04,-0.02,0.93
148.2,3.53,-26.69,1438.97,0,0,0,-0.04,-0.02,0.93
148.3,2.85,-26.69,1439.97,0,0,0,-0.04,-0.02,0.92
148.4,2.5,-26.69,1440.97,0,0,0,-0.03,-0.02,0.92
148.5,2.19,-26.69,1441.97,0,0,0,-0.03,-0.02,0.92
148.6,2.3,-26.66,1442.97,0,0,0,-0.03,-0.02,0.92
148.7,3.87,-26.35,1443.97,0,0,0,-0.04,-0.02,0.92
148.8,3.63,-26.35,1444.97,0,0,0,-0.04,-0.02,0.93
148.9,3.19,-26.35,1445.97,0,0,0,-0.04,-0.02,0.92
149,3.92,-26.24,1446.97,0,0,0,-0.03,-0.03,0.93
149.1,4.39,-26.17,1447.97,0,0,0,-0.04,-0.02,0.93
149.2,3.19,-27.07,1448.97,0,0,0,-0.04,-0.02,0.93
149.3,3.05,-27.18,1449.97,0,0,0,-0.03,-0.02,0.93
149.4,4.21,-26.35,1450.97,0,0,0,-0.04,-0.02,0.92
149.5,3.71,-26.35,1451.97,0,0,0,-0.04,-0.03,0.92
149.6,2.5,-26.35,1452.97,0,0,0,-0.04,-0.02,0.92
149.7,3.36,-26.06,1453.97,0,0,0,-0.04,-0.02,0.91
149.8,4.04,-25.83,1454.97,0,0,0,-0.03,-0.02,0.92
149.9,3.2,-27.24,1455.97,0,0,0,-0.04,-0.02,0.92
150,3.02,-27.54,1456.97,0,0,0,-0.04,-0.02,0.93
150.1,3.02,-26.86,1457.97,0,0,0,-0.04,-0.02,0.93
150.2,2.73,-26.57,1458.97,0,0,0,-0.03,-0.02,0.92
150.3,1.82,-25.66,1459.97,0,0,0,-0.04,-0.02,0.92
150.4,2.25,-26.44,1460.97,0,0,0,-0.04,-0.03,0.92
150.5,2.67,-27.2,1461.97,0,0,0,-0.03,-0.02,0.92
150.6,3.73,-26.94,1462.97,0,0,0,-0.04,-0.02,0.92
150.7,4.04,-26.86,1463.97,0,0,0,-0.03,-0.02,0.92
150.8,3.7,-26.86,1464.97,0,0,0,-0.03,-0.02,0.92
150.9,3.54,-27.02,1465.97,0,0,0,-0.04,-0.02,0.92
151,2.85,-27.71,1466.97,0,0,0,-0.03,-0.02,0.93
151.1,2.69,-26.63,1467.97,0,0,0,-0.04,-0.03,0.92
151.2,2.5,-25.32,1468.97,0,0,0,-0.04,-0.02,0.92
151.3,2.75,-27.04,1469.97,0,0,0,-0.04,-0.02,0.92
151.4,2.85,-27.71,1470.97,0,0,0,-0.04,-0.02,0.92
151.5,2.68,-26.54,1471.97,0,0,0,-0.04,-0.02,0.92
151.6,2.72,-26.66,1472.97,0,0,0,-0.04,-0.02,0.92
151.7,3.02,-27.54,1473.97,0,0,0,-0.03,-0.02,0.93
151.8,3.08,-27.75,1474.97,-0.01,0,0,-0.04,-0.02,0.92
151.9,3.19,-28.06,1475.97,0,0,0,-0.04,-0.02,0.92
152,4.55,-27.15,1476.97,0,0,0,-0.04,-0.02,0.92
152.1,5.24,-26.69,1477.97,0,0,0,-0.04,-0.02,0.92
152.2,4.45,-26.85,1478.97,0,0,0,-0.03,-0.02,0.92
152.3,4.33,-26.86,1479.97,0,0,0,-0.04,-0.02,0.92
152.4,3.7,-26.86,1480.97,0,0,0,-0.03,-0.02,0.92
152.5,3.82,-26.74,1481.97,0,0,0,-0.04,-0.02,0.92
152.6,4.04,-26.52,1482.97,0,0,0,-0.04,-0.02,0.92
152.7,3.83,-26.94,1483.97,0,0,0,-0.03,-0.02,0.92
152.8,3.7,-27.2,1484.97,0,0,0,-0.04,-0.03,0.93
152.9,5.05,-25.85,1485.97,0,0,0,-0.04,-0.02,0.92
153,5.15,-25.7,1486.97,0,0,0,-0.04,-0.02,0.93
153.1,2.5,-26.69,1487.97,0,0,0,-0.04,-0.02,0.92
153.2,2.76,-26.54,1488.97,0,0,0,-0.04,-0.02,0.92
153.3,3.36,-26.17,1489.97,0,0,0,-0.04,-0.02,0.92
153.4,3.45,-26.27,1490.97,0,0,0,-0.04,-0.03,0.92
153.5,3.53,-26.35,1491.97,0,0,0,-0.04,-0.02,0.92
153.6,3.81,-27.19,1492.97,0,0,0,-0.04,-0.02,0.92
153.7,3.87,-27.37,1493.97,0,0,0,-0.04,-0.02,0.93
153.8,3.36,-25.49,1494.97,0,0,0,-0.04,-0.02,0.93
153.9,3.23,-25.79,1495.97,0,0,0,-0.04,-0.02,0.92
154,2.85,-26.69,1496.97,0,0,0,-0.04,-0.02,0.92
154.1,3.19,-25.65,1497.97,0,0,0,-0.03,-0.02,0.93
154.2,3.53,-24.64,1498.97,0,0,0,-0.04,-0.02,0.92
154.3,3.4,-25.03,1499.97,0,0,0,-0.04,-0.02,0.92
154.4,3.36,-25.15,1500.97,0,0,0,-0.03,-0.03,0.92
154.5,3.53,-27.03,1501.97,0,0,0,-0.04,-0.02,0.92
154.6,3.33,-26.9,1502.97,0,0,0,-0.03,-0.02,0.93
154.7,2.5,-26.35,1503.97,0,0,0,-0.04,-0.03,0.92
154.8,3.21,-25.96,1504.97,0,0,0,-0.04,-0.02,0.85
154.9,4.04,-25.49,1505.97,0,0,0,-0.04,-0.01,0.83
155,2.81,-26.73,1506.97,0,0,0,-0.04,-0.02,0.93
155.1,2.33,-27.2,1507.97,0,0,0,-0.04,-0.03,1.06
155.2,3.68,-26.53,1508.97,0,0,0,-0.04,-0.04,1.09
155.3,3.63,-26.45,1509.97,0,0,0,-0.04,-0.04,1.02
155.4,3.19,-26,1510.97,0,0,0,-0.04,-0.03,0.93
155.5,2.98,-27.19,1511.97,0,0,0,-0.04,-0.01,0.86
155.6,2.67,-28.91,1512.97,0,0,0,-0.03,-0.02,0.84
155.7,3.36,-27.54,1513.97,0,0,0,-0.02,-0.02,0.93
155.8,3.7,-26.86,1514.97,0,0,0,-0.03,-0.03,1.01
155.9,2.58,-26.38,1515.97,0,0,0,-0.04,-0.03,1.04
156,2.6,-26.38,1516.97,0,0,0,-0.04,-0.03,1.02
156.1,3.53,-26.69,1517.97,0,0,0,-0.04,-0.03,0.96
156.2,3.23,-26.99,1518.97,0,0,0,-0.03,-0.03,0.9
156.3,2.67,-27.54,1519.97,0,0,0,-0.03,-0.02,0.84
156.4,3.1,-26.7,1520.97,0,0,0,-0.03,-0.02,0.83
156.5,3.36,-26.17,1521.97,0,0,0,-0.03,-0.01,0.87
156.6,2.45,-26.48,1522.97,0,0,0,-0.04,-0.02,0.91
156.7,2.37,-26.53,1523.97,0,0,0,-0.04,-0.02,0.96
156.8,3.36,-26.86,1524.97,0,0,0,-0.04,-0.03,1
156.9,3.31,-27.01,1525.97,0,0,0,-0.03,-0.03,1
157,3.19,-27.37,1526.97,0,0,0,-0.03,-0.02,0.96
157.1,2.7,-26.31,1527.97,0,0,0,-0.03,-0.02,0.9
157.2,2.33,-25.49,1528.97,0,0,0,-0.04,-0.02,0.86
157.3,3.75,-26.91,1529.97,0,0,0,-0.04,-0.02,0.85
157.4,4.04,-27.2,1530.97,0,0,0,-0.04,-0.02,0.88
157.5,3.87,-26,1531.97,0,0,0,-0.04,-0.02,0.91
157.6,3.32,-26.05,1532.97,0,0,0,-0.03,-0.03,0.96
157.7,1.65,-26.17,1533.97,0,0,0,-0.04,-0.02,0.99
157.8,2.52,-26.35,1534.97,0,0,0,-0.04,-0.02,0.98
157.9,3.36,-26.52,1535.97,0,0,0,-0.04,-0.02,0.95
158,3.23,-27.45,1536.97,0,0,0,-0.03,-0.02,0.89
158.1,3.19,-27.71,1537.97,0,0,0,-0.03,-0.02,0.86
158.2,3.02,-26.86,1538.97,0,0,0,-0.03,-0.02,0.88
158.3,3.18,-26.76,1539.97,0,0,0,-0.04,-0.02,0.92
158.4,3.87,-26.35,1540.97,0,0,0,-0.04,-0.03,0.95
158.5,3.72,-26.35,1541.97,0,0,0,-0.04,-0.03,0.98
158.6,3.53,-26.35,1542.97,0,0,0,-0.04,-0.03,0.98
158.7,2.91,-25.98,1543.97,0,0,0,-0.04,-0.02,0.96
158.8,2.67,-25.83,1544.97,0,0,0,-0.03,-0.02,0.93
158.9,2.17,-26.34,1545.97,0,0,0,-0.04,-0.02,0.89
159,2.26,-26.3,1546.97,0,0,0,-0.03,-0.02,0.87
159.1,2.85,-26,1547.97,0,0,0,-0.04,-0.02,0.88
159.2,3.19,-25.8,1548.97,0,0,0,-0.04,-0.02,0.9
159.3,3.7,-25.49,1549.97,0,0,0,-0.04,-0.03,0.94
159.4,3.81,-26.29,1550.97,0,0,0,-0.04,-0.03,0.97
159.5,3.87,-26.69,1551.97,0,0,0,-0.04,-0.03,0.98
159.6,4.19,-27.01,1552.97,0,0,0,-0.04,-0.03,0.97
159.7,4.14,-26.9,1553.97,0,0,0,-0.04,-0.03,0.94
159.8,3.36,-25.49,1554.97,0,0,0,-0.04,-0.02,0.91
159.9,3.6,-26.09,1555.97,0,0,0,-0.03,-0.02,0.88
160,4.04,-27.2,1556.97,0,0,0,-0.03,-0.02,0.88
160.1,4.25,-27.62,1557.97,0,0,0,-0.04,-0.02,0.9
160.2,4.39,-27.89,1558.97,0,0,0,-0.04,-0.02,0.93
160.3,3.63,-27.13,1559.97,0,0,0,-0.04,-0.02,0.95
160.4,3.51,-27.04,1560.97,0,0,0,-0.04,-0.03,0.96
160.5,3.02,-27.2,1561.97,0,0,0,-0.04,-0.03,0.96
160.6,2.86,-27.25,1562.97,0,0,0,-0.04,-0.02,0.95
160.7,2.5,-27.37,1563.97,0,0,0,-0.04,-0.02,0.92
160.8,3.27,-26.79,1564.97,0,0,0,-0.04,-0.02,0.91
160.9,3.87,-26.35,1565.97,0,0,0,-0.03,-0.02,0.9
161,2.6,-26.49,1566.97,0,0,0,-0.04,-0.02,0.91
161.1,2.33,-26.52,1567.97,0,0,0,-0.04,-0.03,0.92
161.2,3.19,-27.03,1568.97,0,0,0,-0.04,-0.02,0.94
161.3,3.14,-27.41,1569.97,0,0,0,-0.03,-0.02,0.94
161.4,3.02,-28.57,1570.97,0,0,0,-0.04,-0.02,0.95
161.5,3.54,-28.05,1571.97,0,0,0,-0.04,-0.03,0.94
161.6,4.04,-27.54,1572.97,0,0,0,-0.04,-0.02,0.92
161.7,3.65,-27.41,1573.97,0,0,0,-0.04,-0.02,0.92
161.8,3.53,-27.37,1574.97,0,0,0,-0.04,-0.03,0.91
161.9,3.36,-26.86,1575.97,0,0,0,-0.04,-0.03,0.92
162,3.39,-26.83,1576.97,0,0,0,-0.04,-0.02,0.93
162.1,3.53,-26.69,1577.97,0,0,0,-0.04,-0.02,0.94
162.2,3.45,-26.77,1578.97,0,0,0,-0.04,-0.02,0.94
162.3,3.36,-26.86,1579.97,0,0,0,-0.04,-0.02,0.94
162.4,5.08,-26.61,1580.97,0,0,0,-0.04,-0.02,0.93
162.5,5.75,-26.52,1581.97,0,0,0,-0.04,-0.02,0.91
162.6,3.73,-26.86,1582.97,0,0,0,-0.04,-0.02,0.91
162.7,3.56,-26.76,1583.97,0,0,0,-0.04,-0.03,0.91
162.8,2.67,-26.17,1584.97,0,0,0,-0.04,-0.02,0.92
162.9,2.81,-26.45,1585.97,0,0,0,-0.04,-0.03,0.93
163,3.02,-26.86,1586.97,0,0,0,-0.03,-0.03,0.93
163.1,2.56,-26.17,1587.97,0,0,0,-0.04,-0.03,0.94
163.2,2.33,-25.83,1588.97,0,0,0,-0.04,-0.02,0.94
163.3,2.65,-27.43,1589.97,0,0,0,-0.04,-0.02,0.94
163.4,2.9,-27.56,1590.97,0.01,0,0,-0.03,-0.02,0.92
163.5,5.24,-27.71,1591.97,0,0,0,-0.04,-0.02,0.91
163.6,4.58,-27.17,1592.97,0,0,0,-0.04,-0.02,0.92
163.7,3.36,-26.17,1593.97,0,0,0,-0.04,-0.02,0.92
163.8,3.36,-26.39,1594.97,0,0,0,-0.04,-0.03,0.93
163.9,3.36,-26.52,1595.97,0,0,0,-0.04,-0.03,0.94
164,2.76,-26.82,1596.97,0,0,0,-0.04,-0.03,0.94
164.1,2.68,-26.81,1597.97,0,0,0,-0.04,-0.02,0.94
164.2,2.85,-25.32,1598.97,0,0,0,-0.03,-0.03,0.93
164.3,3,-25.58,1599.97,0,0,0,-0.03,-0.02,0.91
164.4,3.36,-26.17,1600.97,0,0,0,-0.04,-0.03,0.91
164.5,2.68,-27.04,1601.97,0,0,0,-0.04,-0.02,0.91
164.6,2.16,-27.71,1602.97,0,0,0,-0.04,-0.02,0.92
164.7,3.43,-25.88,1603.97,0,0,0,-0.04,-0.02,0.93
164.8,3.7,-25.49,1604.97,0,0,0,-0.04,-0.03,0.93
164.9,3.87,-27.37,1605.97,0,0,0,-0.04,-0.02,0.94
165,3.91,-27.33,1606.97,0,0,0,-0.04,-0.03,0.94
165.1,4.04,-27.2,1607.97,0,0,0,-0.04,-0.03,0.93
165.2,3.52,-26.85,1608.97,0,0,0,-0.04,-0.02,0.93
165.3,3.02,-26.52,1609.97,0,0,0,-0.04,-0.02,0.92
165.4,2.49,-27.58,1610.97,0,0,0,-0.04,-0.02,0.92
165.5,2.33,-27.89,1611.97,0,0,0,-0.03,-0.02,0.92
165.6,3.02,-26.52,1612.97,0,0,0,-0.04,-0.02,0.93
165.7,3.15,-26.52,1613.97,0,0,0,-0.04,-0.02,0.93
165.8,3.7,-26.52,1614.97,0,0,0,-0.03,-0.02,0.93
165.9,3.7,-26.36,1615.97,0,0,0,-0.03,-0.02,0.94
166,3.7,-26.17,1616.97,0,0,0,-0.04,-0.03,0.93
166.1,2.71,-26.42,1617.97,0,0,0,-0.04,-0.02,0.93
166.2,2.33,-26.52,1618.97,0,0,0,-0.03,-0.03,0.93
166.3,3.01,-25.17,1619.97,0,0,0,-0.04,-0.02,0.91
166.4,3.29,-25.52,1620.97,0,0,0,-0.04,-0.02,0.92
166.5,4.9,-27.71,1621.97,0,0,0,-0.04,-0.03,0.92
166.6,4.27,-27.09,1622.97,0,0,0,-0.04,-0.02,0.93
166.7,3.36,-26.17,1623.97,0,0,0,-0.04,-0.02,0.93
166.8,2.67,-27.32,1624.97,0,0,0,-0.04,-0.02,0.94
166.9,2.33,-27.89,1625.97,0,0,0,-0.04,-0.02,0.94
167,3.13,-26.45,1626.97,0,0,0,-0.03,-0.02,0.93
167.1,3.23,-26.3,1627.97,0,0,0,-0.03,-0.03,0.92
167.2,3.7,-25.83,1628.97,0,0,0,-0.03,-0.03,0.92
167.3,3.52,-26.25,1629.97,0,0,0,-0.04,-0.02,0.92
167.4,3.19,-27.03,1630.97,0,0,0,-0.04,-0.02,0.93
167.5,3.08,-26.29,1631.97,0,0,0,-0.04,-0.02,0.92
167.6,3.02,-25.83,1632.97,0,0,0,-0.04,-0.03,0.93
167.7,3.62,-25.53,1633.97,0,0,0,-0.04,-0.02,0.94
167.8,3.69,-25.51,1634.97,0,0,0,-0.03,-0.02,0.94
167.9,3.36,-25.83,1635.97,0,0,0,-0.04,-0.02,0.93
168,3.26,-25.73,1636.97,0,0,0,-0.04,-0.03,0.93
168.1,3.02,-25.49,1637.97,0,0,0,-0.04,-0.03,0.92
168.2,3.4,-25.88,1638.97,0,0,0,-0.04,-0.02,0.92
168.3,3.7,-26.17,1639.97,0,0,0,-0.04,-0.02,0.92
168.4,3.84,-26.03,1640.97,0,0,0,-0.04,-0.03,0.93
168.5,3.87,-26,1641.97,0,0,0,-0.04,-0.02,0.93
168.6,3.36,-26.52,1642.97,0,0,0,-0.04,-0.03,0.93
168.7,3.32,-26.48,1643.97,0,0,0,-0.04,-0.02,0.94
168.8,3.19,-26.35,1644.97,0,0,0,-0.04,-0.02,0.93
168.9,3.54,-27.22,1645.97,0,0,0,-0.03,-0.02,0.93
169,3.87,-28.06,1646.97,0,0,0,-0.04,-0.02,0.92
169.1,3.87,-27.74,1647.97,0,0,0,-0.04,-0.02,0.92
169.2,3.87,-27.71,1648.97,0,0,0,-0.03,-0.03,0.92
169.3,3.32,-27.71,1649.97,0,0,0,-0.04,-0.02,0.92
169.4,3.19,-27.71,1650.97,0,0,0,-0.04,-0.03,0.93
169.5,3.53,-27.03,1651.97,0,0,0,-0.03,-0.02,0.92
169.6,3.72,-26.84,1652.97,0,0,0,-0.04,-0.02,0.93
169.7,4.9,-25.66,1653.97,0,0,0,-0.03,-0.02,0.93
169.8,4.62,-25.8,1654.97,0,0,0,-0.04,-0.02,0.93
169.9,4.21,-26,1655.97,0,0,0,-0.04,-0.02,0.93
170,4.1,-26.35,1656.97,0,0,0,-0.04,-0.03,0.92
170.1,4.04,-26.52,1657.97,0,0,0,-0.04,-0.02,0.92
170.2,3.72,-26.52,1658.97,0,0,0,-0.04,-0.02,0.93
170.3,3.63,-26.53,1659.97,0,0,0,-0.04,-0.03,0.93
170.4,2.85,-26.69,1660.97,0,0,0,-0.04,-0.03,0.93
170.5,3.34,-26.44,1661.97,0,0,0,-0.03,-0.02,0.92
170.6,4.21,-26,1662.97,0,0,0,-0.04,-0.02,0.93
170.7,4,-26.22,1663.97,0,0,0,-0.03,-0.02,0.93
170.8,3.87,-26.35,1664.97,0,0,0,-0.04,-0.02,0.93
170.9,2.02,-26.35,1665.97,0,0,0,-0.04,-0.02,0.93
171,1.91,-26.37,1666.97,0,0,0,-0.04,-0.03,0.93
171.1,4.56,-27.03,1667.97,0,0,0,-0.04,-0.02,0.92
171.2,3.98,-26.56,1668.97,0,0,0,-0.04,-0.02,0.93
171.3,2.67,-25.49,1669.97,0,0,0,-0.04,-0.02,0.92
171.4,3.17,-26.58,1670.97,0,0,0,-0.04,-0.02,0.93
171.5,3.53,-27.37,1671.97,0,0,0,-0.04,-0.03,0.93
171.6,3.97,-27.23,1672.97,0,0,0,-0.04,-0.02,0.93
171.7,4.04,-27.2,1673.97,0,0,0,-0.04,-0.03,0.92
171.8,3.19,-27.03,1674.97,0,0,0,-0.04,-0.03,0.93
171.9,3.1,-27.12,1675.97,0,0,0,-0.04,-0.03,0.93
172,2.85,-27.37,1676.97,0,0,0,-0.03,-0.02,0.93
172.1,2.94,-27.28,1677.97,0,0,0,-0.04,-0.03,0.92
172.2,3.02,-27.2,1678.97,0,0,0,-0.04,-0.02,0.93
172.3,2.88,-27.34,1679.97,0,0,0,-0.03,-0.02,0.93
172.4,2.85,-27.37,1680.97,0,0,0,-0.03,-0.02,0.92
172.5,3.7,-26.86,1681.97,0,0,0,-0.03,-0.03,0.92
172.6,3.81,-26.9,1682.97,0,0,0,-0.04,-0.02,0.93
172.7,4.21,-27.03,1683.97,0,0,0,-0.04,-0.02,0.94
172.8,3.81,-27.11,1684.97,0,0,0,-0.04,-0.02,0.92
172.9,3.36,-27.2,1685.97,0,0,0,-0.04,-0.02,0.93
173,2.98,-27.08,1686.97,0,0,0,-0.04,-0.02,0.92
173.1,2.85,-27.03,1687.97,0,0,0,-0.04,-0.02,0.93
173.2,3.87,-26.69,1688.97,0,0,0,-0.04,-0.02,0.92
173.3,3.72,-26.64,1689.97,0,0,0,-0.04,-0.02,0.92
173.4,2.85,-26.35,1690.97,0,0,0,-0.03,-0.02,0.93
173.5,2.7,-25.77,1691.97,0,0,0,-0.03,-0.02,0.92
173.6,2.5,-24.98,1692.97,0,0,0,-0.03,-0.02,0.93
173.7,2.86,-25.81,1693.97,0,0,0,-0.04,-0.02,0.93
173.8,3.02,-26.17,1694.97,0,0,0,-0.04,-0.02,0.93
173.9,3.51,-27.33,1695.97,0,0,0,-0.04,-0.02,0.93
174,3.55,-27.39,1696.97,0,0,0,-0.04,-0.02,0.93
174.1,3.7,-27.54,1697.97,0,0,0,-0.04,-0.02,0.92
174.2,3.32,-27.42,1698.97,0,0,0,-0.04,-0.02,0.93
174.3,2.67,-27.2,1699.97,0,0,0,-0.03,-0.02,0.93
174.4,3,-26.65,1700.97,0,0,0,-0.04,-0.02,0.93
174.5,3.19,-26.35,1701.97,0,0,0,-0.03,-0.02,0.92
174.6,3.5,-26.35,1702.97,0,0,0,-0.04,-0.02,0.93
174.7,3.52,-26.34,1703.97,0,0,0,-0.04,-0.02,0.93
174.8,3.36,-26.17,1704.97,0,0,0,-0.04,-0.02,0.93
174.9,3.14,-26.5,1705.97,0,0,0,-0.04,-0.02,0.93
175,2.67,-27.2,1706.97,0,0,0,-0.04,-0.02,0.93
175.1,2.98,-26.3,1707.97,0,0,0,-0.04,-0.02,0.92
175.2,3.19,-25.66,1708.97,0,0,0,-0.04,-0.03,0.9
175.3,2.75,-26.39,1709.97,0,0,0,-0.03,-0.01,0.73
175.4,2.67,-26.52,1710.97,0,0,0,-0.03,0.01,0.74
175.5,2.16,-27.03,1711.97,0,0,0,-0.03,-0.01,0.93
175.6,2.57,-26.72,1712.97,0,0,0,-0.04,-0.04,1.14
175.7,3.7,-25.83,1713.97,0,0,0,-0.04,-0.06,1.2
175.8,3.06,-25.92,1714.97,0,0,0,-0.05,-0.08,1.17
175.9,2.5,-26,1715.97,0,0,0,-0.05,-0.05,1.06
176,2.37,-25.87,1716.97,0,0,0,-0.05,-0.04,0.93
176.1,2.33,-25.83,1717.97,0,0,0,-0.05,-0.02,0.82
176.2,3.7,-26.52,1718.97,0,0,0,-0.04,0,0.78
176.3,3.56,-26.66,1719.97,0,0,0,-0.03,0,0.77
176.4,3.02,-27.2,1720.97,0,0,0,-0.02,-0.02,0.88
176.5,3.84,-26.54,1721.97,0,0,0,-0.02,-0.01,0.89
176.6,4.73,-25.83,1722.97,0,0,0,-0.04,0,0.89
176.7,3.31,-26.22,1723.97,0,0,0,-0.03,0,0.9
176.8,2.85,-26.35,1724.97,0,0,0,-0.03,-0.01,0.88
176.9,2.5,-27.03,1725.97,0,0,0,-0.04,-0.03,0.9
177,2.56,-26.87,1726.97,0.01,0,0,-0.05,-0.05,0.99
177.1,2.85,-26,1727.97,0,0,0,-0.05,-0.06,1.07
177.2,3.21,-26.37,1728.97,0,0,0,-0.05,-0.06,1.09
177.3,3.7,-26.86,1729.97,0,0,0,-0.05,-0.05,1.03
177.4,3.46,-26.38,1730.97,0,0,0,-0.04,-0.03,0.97
177.5,3.36,-26.17,1731.97,0,0,0,-0.03,-0.01,0.91
177.6,2.86,-26.67,1732.97,0,0,0,-0.03,0,0.89
177.7,2.83,-26.63,1733.97,0,0,0,-0.02,0,0.85
177.8,2.67,-26.17,1734.97,0,0,0,-0.03,0,0.83
177.9,2.22,-26.5,1735.97,0,0,0,-0.03,-0.01,0.83
178,1.48,-27.03,1736.97,0,0,0,-0.03,-0.01,0.81
178.1,2.36,-27.03,1737.97,0,0,0,-0.03,-0.01,0.8
178.2,2.85,-27.03,1738.97,0,0,0,-0.03,-0.01,0.87
178.3,1.9,-26.4,1739.97,0,0,0,-0.03,-0.03,1.01
178.4,1.88,-26.33,1740.97,0,0,0,-0.04,-0.05,1.1
178.5,2.85,-26,1741.97,0,0,0,-0.05,-0.06,1.11
178.6,2.96,-26.34,1742.97,0,0,0,-0.05,-0.07,1.05
178.7,3.19,-27.03,1743.97,0,0,0,-0.05,-0.04,0.98
178.8,2.68,-27.13,1744.97,0,0,0,-0.04,-0.02,0.89
178.9,2.33,-27.2,1745.97,0,0,0,-0.03,0,0.81
179,3.96,-27.05,1746.97,0,0,0,-0.02,0,0.82
179.1,4.21,-27.03,1747.97,0,0,0,-0.03,0,0.86
179.2,3.87,-26.35,1748.97,0,0,0,-0.03,-0.01,0.89
179.3,4.15,-26.35,1749.97,0,0,0,-0.04,-0.02,0.88
179.4,4.9,-26.35,1750.97,0,0,0,-0.04,-0.01,0.89
179.5,3.59,-27.09,1751.97,0,0,0,-0.04,-0.02,0.96
179.6,2.5,-27.71,1752.97,0,0,0,-0.04,-0.02,1.01
179.7,2.5,-27.99,1753.97,0,0,0,-0.04,-0.04,1
179.8,2.5,-28.06,1754.97,0,0,0,-0.05,-0.05,0.99
179.9,3.02,-26.17,1755.97,0,0,0,-0.05,-0.05,0.96
180,3.4,-26.63,1756.97,0,0,0,-0.04,-0.04,0.94
180.1,4.73,-28.23,1757.97,0,0,0,-0.04,-0.02,0.9
180.2,4.31,-27.81,1758.97,0,0,0,-0.03,-0.01,0.88
180.3,3.87,-27.37,1759.97,0,0,0,-0.02,0,0.89
180.4,4.13,-27.11,1760.97,0,0,0,-0.03,-0.01,0.89
180.5,4.21,-27.03,1761.97,0,0,0,-0.04,-0.01,0.88
180.6,2.16,-27.37,1762.97,0,0,0,-0.04,-0.02,0.89
180.7,2.45,-27.2,1763.97,0,0,0,-0.04,-0.02,0.92
180.8,3.87,-26.35,1764.97,0,0,0,-0.04,-0.03,0.97
180.9,4.25,-26.42,1765.97,0,0,0,-0.04,-0.04,0.99
181,4.73,-26.52,1766.97,0,0,0,-0.04,-0.04,0.98
181.1,4,-25.79,1767.97,0,0,0,-0.04,-0.04,0.98
181.2,3.7,-25.49,1768.97,0,0,0,-0.04,-0.03,0.95
181.3,3.03,-26.16,1769.97,0,0,0,-0.03,-0.01,0.92
181.4,3.12,-26.28,1770.97,0,0,0,-0.03,-0.01,0.88
181.5,3.87,-27.03,1771.97,0,0,0,-0.03,-0.01,0.87
181.6,3.61,-27.03,1772.97,0,0,0,-0.03,-0.01,0.87
181.7,3.19,-27.03,1773.97,0,0,0,-0.03,-0.02,0.88
181.8,3.3,-26.47,1774.97,0,0,0,-0.04,-0.03,0.91
181.9,3.36,-26.17,1775.97,0,0,0,-0.04,-0.03,0.96
182,2.72,-26.49,1776.97,0,0,0,-0.05,-0.03,0.99
182.1,2.81,-26.61,1777.97,0,0,0,-0.04,-0.04,1
182.2,4.73,-27.89,1778.97,0,0,0,-0.04,-0.03,0.98
182.3,4.38,-27.19,1779.97,0,0,0,-0.03,-0.03,0.95
182.4,3.7,-25.83,1780.97,0,0,0,-0.04,-0.02,0.91
182.5,2.66,-26.46,1781.97,0,0,0,-0.03,-0.01,0.87
182.6,1.99,-26.86,1782.97,0,0,0,-0.03,-0.01,0.86
182.7,2.74,-26.71,1783.97,0,0,0,-0.03,0,0.88
182.8,2.83,-26.69,1784.97,0,0,0,-0.03,-0.02,0.9
182.9,1.82,-26.69,1785.97,0,0,0,-0.03,-0.02,0.92
183,2.21,-26.88,1786.97,0,0,0,-0.04,-0.03,0.96
183.1,3.19,-27.37,1787.97,0,0,0,-0.04,-0.03,0.98
183.2,3.57,-27.18,1788.97,0,0,0,-0.04,-0.03,0.98
183.3,3.87,-27.03,1789.97,0,0,0,-0.04,-0.03,0.96
183.4,3.02,-25.33,1790.97,0,0,0,-0.04,-0.03,0.93
183.5,2.85,-24.98,1791.97,0,0,0,-0.04,-0.02,0.91
183.6,2.5,-27.03,1792.97,0,0,0,-0.03,-0.01,0.9
183.7,2.71,-26.99,1793.97,0,0,0,-0.03,-0.01,0.89
183.8,3.36,-26.86,1794.97,0,0,0,-0.03,-0.01,0.9
183.9,3.62,-27.99,1795.97,0,0,0,-0.04,-0.02,0.92
184,3.87,-29.08,1796.97,0,0,0,-0.03,-0.02,0.93
184.1,3.61,-28.02,1797.97,0,0,0,-0.04,-0.02,0.95
184.2,3.53,-27.71,1798.97,0,0,0,-0.04,-0.03,0.95
184.3,3.87,-27.03,1799.97,0,0,0,-0.04,-0.03,0.96
184.4,3.81,-26.84,1800.97,0,0,0,-0.04,-0.03,0.94
184.5,3.53,-26,1801.97,0,0,0,-0.04,-0.03,0.94
184.6,2.91,-26.47,1802.97,0,0,0,-0.04,-0.02,0.92
184.7,2.16,-27.03,1803.97,0,0,0,-0.03,-0.02,0.91
184.8,3.41,-27.28,1804.97,0,0,0,-0.04,-0.02,0.92
184.9,3.87,-27.37,1805.97,0,0,0,-0.03,-0.02,0.92
185,3.7,-26.52,1806.97,0,0,0,-0.04,-0.02,0.92
185.1,3.79,-26.47,1807.97,0,0,0,-0.03,-0.02,0.92
185.2,4.39,-26.17,1808.97,0,0,0,-0.04,-0.02,0.93
185.3,4.04,-26.25,1809.97,0,0,0,-0.04,-0.03,0.93
185.4,3.53,-26.35,1810.97,0,0,0,-0.04,-0.03,0.93
185.5,3.3,-26.81,1811.97,0,0,0,-0.04,-0.03,0.95
185.6,3.19,-27.03,1812.97,0,0,0,-0.04,-0.03,0.93
185.7,3.02,-26.87,1813.97,0,0,0,-0.04,-0.02,0.93
185.8,3.03,-26.76,1814.97,0,0,0,-0.04,-0.02,0.93
185.9,3.19,-25.66,1815.97,0,0,0,-0.04,-0.02,0.92
186,3.13,-25.72,1816.97,0,0,0,-0.03,-0.02,0.91
186.1,3.02,-25.83,1817.97,0,0,0,-0.03,-0.02,0.91
186.2,3.34,-25.94,1818.97,0,0,0,-0.04,-0.02,0.91
186.3,3.53,-26,1819.97,0,0,0,-0.04,-0.02,0.92
186.4,2.46,-27.08,1820.97,0,0,0,-0.04,-0.03,0.93
186.5,2.36,-27.2,1821.97,0,0,0,-0.04,-0.03,0.94
186.6,3.19,-27.03,1822.97,0,0,0,-0.04,-0.03,0.95
186.7,3.08,-26.82,1823.97,0,0,0,-0.04,-0.02,0.95
186.8,2.85,-26.35,1824.97,0,0,0,-0.04,-0.02,0.94
186.9,3.14,-26.05,1825.97,0,0,0,-0.03,-0.03,0.93
187,3.36,-25.83,1826.97,0,0,0,-0.04,-0.02,0.92
187.1,3.79,-25.69,1827.97,0,0,0,-0.04,-0.02,0.91
187.2,3.87,-25.66,1828.97,0,0,0,-0.04,-0.02,0.91
187.3,2.85,-27.37,1829.97,0,0,0,-0.04,-0.02,0.91
187.4,2.85,-26.86,1830.97,0,0,0,-0.04,-0.02,0.92
187.5,2.85,-25.32,1831.97,0,0,0,-0.04,-0.02,0.93
187.6,2.93,-26.3,1832.97,0,0,0,-0.04,-0.03,0.94
187.7,3.02,-27.2,1833.97,0,0,0,-0.04,-0.03,0.95
187.8,4.51,-25.98,1834.97,0,0,0,-0.03,-0.02,0.94
187.9,4.9,-25.66,1835.97,0,0,0,-0.04,-0.03,0.94
188,1.99,-27.2,1836.97,0,0,0,-0.04,-0.02,0.93
188.1,2.36,-27.1,1837.97,0,0,0,-0.04,-0.02,0.91
188.2,3.87,-26.69,1838.97,0,0,0,-0.04,-0.02,0.91
188.3,3.63,-26.77,1839.97,0,0,0,-0.04,-0.02,0.92
188.4,3.36,-26.86,1840.97,0,0,0,-0.04,-0.02,0.92
188.5,2.85,-27.88,1841.97,0,0,0,-0.04,-0.03,0.92
188.6,2.67,-28.23,1842.97,0,0,0,-0.04,-0.03,0.94
188.7,3.7,-26.86,1843.97,0,0,0,-0.04,-0.03,0.93
188.8,3.78,-26.89,1844.97,0,0,0,-0.04,-0.03,0.94
188.9,4.21,-27.03,1845.97,0,0,0,-0.04,-0.02,0.93
189,3.86,-27.25,1846.97,0,0,0,-0.04,-0.02,0.93
189.1,3.36,-27.54,1847.97,0,0,0,-0.04,-0.02,0.93
189.2,2.53,-26.48,1848.97,0,0,0,-0.03,-0.02,0.92
189.3,2.16,-26,1849.97,0,0,0,-0.04,-0.02,0.92
189.4,2.82,-26.66,1850.97,0,0,0,-0.04,-0.02,0.92
189.5,2.91,-26.66,1851.97,0,0,0,-0.04,-0.02,0.92
189.6,3.53,-26.35,1852.97,0,0,0,-0.04,-0.02,0.93
189.7,3.53,-26.1,1853.97,0,0,0,-0.04,-0.02,0.93
189.8,3.53,-25.66,1854.97,0,0,0,-0.04,-0.02,0.93
189.9,3.53,-25.66,1855.97,0,0,0,-0.04,-0.03,0.94
190,3.53,-25.66,1856.97,0,0,0,-0.04,-0.03,0.93
190.1,3.06,-26.44,1857.97,0,0,0,-0.04,-0.02,0.93
190.2,3.06,-26.5,1858.97,0,0,0,-0.04,-0.02,0.93
190.3,4.04,-26.17,1859.97,0,0,0,-0.03,-0.02,0.92
190.4,3.67,-26.45,1860.97,0,0,0,-0.04,-0.02,0.92
190.5,2.85,-27.03,1861.97,0,0,0,-0.03,-0.02,0.92
190.6,3.04,-26.43,1862.97,0,0,0,-0.04,-0.02,0.92
190.7,3.19,-26,1863.97,0,0,0,-0.03,-0.02,0.92
190.8,3.92,-26.44,1864.97,0,0,0,-0.04,-0.02,0.92
190.9,4.04,-26.52,1865.97,0,0,0,-0.04,-0.02,0.93
191,3.53,-25.66,1866.97,0,0,0,-0.04,-0.03,0.94
191.1,3.8,-26.02,1867.97,0,0,0,-0.04,-0.02,0.93
191.2,4.56,-27.03,1868.97,0,0,0,-0.04,-0.03,0.93
191.3,4.28,-27.12,1869.97,0,0,0,-0.04,-0.02,0.94
191.4,4.04,-27.2,1870.97,0,0,0,-0.03,-0.02,0.93
191.5,4.32,-26.93,1871.97,0,0,0,-0.03,-0.02,0.92
191.6,4.39,-26.86,1872.97,0,0,0,-0.04,-0.02,0.92
191.7,2.67,-27.54,1873.97,0,0,0,-0.03,-0.02,0.92
191.8,3,-27.15,1874.97,0,0,0,-0.03,-0.02,0.92
191.9,4.21,-25.66,1875.97,0,0,0,-0.04,-0.02,0.92
192,3.88,-26.16,1876.97,0,0,0,-0.03,-0.02,0.92
192.1,3.53,-26.69,1877.97,0,0,0,-0.04,-0.03,0.93
192.2,3.79,-26.17,1878.97,0,0,0,-0.04,-0.03,0.93
192.3,3.87,-26,1879.97,0,0,0,-0.04,-0.02,0.93
192.4,4.21,-25.32,1880.97,0,0,0,-0.04,-0.02,0.93
192.5,4.13,-25.56,1881.97,0,0,0,-0.04,-0.02,0.92
192.6,3.7,-26.86,1882.97,0,0,0,-0.04,-0.02,0.93
192.7,2.97,-27.15,1883.97,0,0,0,-0.03,-0.03,0.92
192.8,1.99,-27.54,1884.97,0,0,0,-0.04,-0.02,0.92
192.9,2.71,-27.54,1885.97,0,0,0,-0.04,-0.02,0.93
193,3.02,-27.54,1886.97,0,0,0,-0.04,-0.02,0.93
193.1,3.18,-26.38,1887.97,0,0,0,-0.04,-0.02,0.93
193.2,3.28,-26.44,1888.97,0,0,0,-0.03,-0.02,0.94
193.3,4.04,-27.2,1889.97,0,0,0,-0.04,-0.02,0.93
193.4,3.66,-26.95,1890.97,0,0,0,-0.04,-0.03,0.93
193.5,3.02,-26.52,1891.97,0,0,0,-0.04,-0.02,0.93
193.6,2.46,-27.29,1892.97,0,0,0,-0.04,-0.02,0.92
193.7,2.16,-27.71,1893.97,0,0,0,-0.04,-0.02,0.92
193.8,3.26,-27.56,1894.97,0,0,0,-0.04,-0.02,0.92
193.9,3.37,-27.52,1895.97,0,0,0,-0.04,-0.02,0.92
194,3.53,-27.03,1896.97,0,0,0,-0.04,-0.02,0.93
194.1,3.31,-26.81,1897.97,0,0,0,-0.04,-0.02,0.93
194.2,2.85,-26.35,1898.97,0,0,0,-0.04,-0.02,0.93
194.3,3.15,-26.45,1899.97,0,0,0,-0.03,-0.02,0.93
194.4,3.36,-26.52,1900.97,0,0,0,-0.04,-0.03,0.93
194.5,2.02,-26.37,1901.97,0,0,0,-0.04,-0.02,0.92
194.6,1.83,-26.34,1902.97,0,0,0,-0.04,-0.02,0.92
194.7,4.04,-25.49,1903.97,0,0,0,-0.04,-0.02,0.93
194.8,4.09,-26.1,1904.97,0,0,0,-0.04,-0.03,0.92
194.9,4.21,-27.71,1905.97,0,0,0,-0.03,-0.02,0.93
195,3.75,-27.06,1906.97,0,0,0,-0.04,-0.02,0.92
195.1,3.36,-26.52,1907.97,0,0,0,-0.04,-0.02,0.93
195.2,4.2,-26.24,1908.97,0,0,0,-0.04,-0.02,0.93
195.3,4.39,-26.17,1909.97,0,0,0,-0.04,-0.02,0.93
195.4,2.5,-27.03,1910.97,0,0,0,-0.04,-0.03,0.93
195.5,2.62,-26.77,1911.97,0,0,0,-0.04,-0.02,0.92
195.6,3.02,-25.83,1912.97,0,0,0,-0.04,-0.03,0.92
195.7,3.52,-26.34,1913.97,0,0,0,-0.04,-0.02,0.92
195.8,4.04,-26.86,1914.97,0,0,0,-0.04,-0.02,0.93
195.9,3.65,-26.73,1915.97,0,0,0,-0.04,-0.02,0.93
196,3.53,-26.69,1916.97,0,0,0,-0.04,-0.02,0.93
196.1,3.87,-27.37,1917.97,0,0,0,-0.04,-0.02,0.93
196.2,3.58,-27.26,1918.97,0,0,0,-0.04,-0.02,0.93
196.3,2.16,-26.69,1919.97,0,0,0,-0.03,-0.03,0.93
196.4,1.63,-26.76,1920.97,0,0,0,-0.04,-0.03,0.93
196.5,0.96,-26.86,1921.97,0,0,0,-0.04,-0.02,0.93
196.6,2.43,-27.59,1922.97,0,0,0,-0.04,-0.03,0.92
196.7,3.02,-27.89,1923.97,0,0,0,-0.04,-0.02,0.92
196.8,2.68,-27.21,1924.97,0,0,0,-0.04,-0.02,0.92
196.9,2.65,-27.14,1925.97,0,0,0,-0.04,-0.02,0.93
197,2.5,-26.69,1926.97,0,0,0,-0.03,-0.02,0.93
197.1,2.84,-26.49,1927.97,0,0,0,-0.03,-0.03,0.93
197.2,3.36,-26.17,1928.97,0,0,0,-0.04,-0.02,0.93
197.3,3.7,-26.29,1929.97,0,0,0,-0.04,-0.02,0.93
197.4,3.87,-26.35,1930.97,0,0,0,-0.04,-0.03,0.93
197.5,4.03,-26.51,1931.97,0,0,0,-0.04,-0.02,0.92
197.6,4.04,-26.52,1932.97,0,0,0,-0.04,-0.02,0.93
197.7,4.04,-26.52,1933.97,0,0,0,-0.04,-0.02,0.93
197.8,3.87,-26.46,1934.97,0,0,0,-0.04,-0.02,0.93
197.9,3.53,-26.35,1935.97,0,0,0,-0.04,-0.02,0.93
198,3.32,-26.55,1936.97,0,0,0,-0.04,-0.02,0.93
198.1,3.19,-26.69,1937.97,0,0,0,-0.04,-0.02,0.93
198.2,3.19,-26.99,1938.97,0.01,0,0,-0.04,-0.02,0.93
198.3,3.18,-27.01,1939.97,0,0,0,-0.04,-0.02,0.92
198.4,2.85,-26,1940.97,0,0,0,-0.04,-0.02,0.93
198.5,2.89,-25.96,1941.97,0,0,0,-0.04,-0.02,0.92
198.6,3.02,-25.83,1942.97,0,0,0,-0.04,-0.03,0.93
198.7,3.02,-26.02,1943.97,0,0,0,-0.04,-0.03,0.92
198.8,3.02,-26.17,1944.97,0,0,0,-0.04,-0.02,0.92
198.9,4.15,-27.03,1945.97,0,0,0,-0.04,-0.03,0.93
199,4.39,-27.2,1946.97,0,0,0,-0.04,-0.02,0.93
199.1,3.02,-27.2,1947.97,0,0,0,-0.04,-0.02,0.93
199.2,2.98,-26.92,1948.97,0,0,0,-0.04,-0.02,0.93
199.3,2.85,-26,1949.97,0,0,0,-0.04,-0.02,0.92
199.4,3.28,-26.61,1950.97,0,0,0,-0.04,-0.02,0.93
199.5,3.7,-27.2,1951.97,0,0,0,-0.04,-0.03,0.93
199.6,3.7,-26.94,1952.97,0,0,0,-0.04,-0.02,0.93
199.7,3.7,-26.86,1953.97,0,0,0,-0.03,-0.02,0.93
199.8,3.19,-26.69,1954.97,0,0,0,-0.04,-0.02,0.93
199.9,3.34,-26.84,1955.97,0,0,0,-0.04,-0.02,0.93
200,4.04,-27.54,1956.97,0,0,0,-0.04,-0.02,0.93
200.1,3.65,-27.62,1957.97,0,0,0,-0.03,-0.02,0.93
200.2,3.19,-27.71,1958.97,0,0,0,-0.04,-0.02,0.92
200.3,3.93,-26.97,1959.97,0,0,0,-0.04,-0.02,0.93
200.4,4.21,-26.69,1960.97,0,0,0,-0.04,-0.02,0.93
200.5,2.68,-25.84,1961.97,0,0,0,-0.04,-0.02,0.93
200.6,2.74,-25.95,1962.97,0,0,0,-0.04,-0.02,0.93
200.7,3.19,-26.69,1963.97,0,0,0,-0.04,-0.02,0.93
200.8,3.32,-26.41,1964.97,0,0,0,-0.04,-0.02,0.93
200.9,3.53,-26,1965.97,0,0,0,-0.04,-0.02,0.93
201,2.72,-26.81,1966.97,0,0,0,-0.04,-0.02,0.93
201.1,2.33,-27.2,1967.97,0,0,0,-0.04,-0.02,0.93
201.2,2.82,-25.75,1968.97,0,0,0,-0.04,-0.02,0.93
201.3,2.79,-25.75,1969.97,0,0,0,-0.04,-0.02,0.92
201.4,2.16,-26.69,1970.97,0,0,0,-0.04,-0.02,0.92
201.5,2.52,-26.57,1971.97,0,0,0,-0.04,-0.02,0.92
201.6,3.19,-26.35,1972.97,0,0,0,-0.04,-0.02,0.93
201.7,3.72,-27.09,1973.97,0,0,0,-0.04,-0.02,0.92
201.8,4.04,-27.54,1974.97,0,0,0,-0.03,-0.02,0.93
201.9,2.51,-27.24,1975.97,0,0,0,-0.04,-0.03,0.93
202,2.33,-27.17,1976.97,0,0,0,-0.04,-0.02,0.93
202.1,2.33,-26.17,1977.97,0,0,0,-0.04,-0.02,0.93
202.2,2.44,-26.28,1978.97,0,0,0,-0.04,-0.02,0.93
202.3,2.67,-26.52,1979.97,0,0,0,-0.04,-0.02,0.92
202.4,2.77,-26.62,1980.97,0,0,0,-0.04,-0.02,0.93
202.5,2.85,-26.69,1981.97,0,0,0,-0.04,-0.02,0.93
202.6,3.13,-26.69,1982.97,0,0,0,-0.04,-0.02,0.93
202.7,3.19,-26.69,1983.97,0,0,0,-0.03,-0.02,0.92
202.8,3.7,-26.17,1984.97,0,0,0,-0.04,-0.02,0.93
202.9,3.36,-26.09,1985.97,0,0,0,-0.04,-0.03,0.92
203,2.33,-25.83,1986.97,0,0,0,-0.04,-0.02,0.94
203.1,2.87,-25.48,1987.97,0,0,0,-0.04,-0.02,0.93
203.2,3.36,-25.15,1988.97,0,0,0,-0.03,-0.02,0.93
203.3,3.22,-26.63,1989.97,0,0,0,-0.03,-0.02,0.93
203.4,3.19,-27.03,1990.97,0,0,0,-0.04,-0.02,0.92
203.5,3.7,-26.17,1991.97,0,0,0,-0.04,-0.02,0.92
203.6,3.73,-26.21,1992.97,0,0,0,-0.04,-0.03,0.92
203.7,3.87,-26.35,1993.97,0,0,0,-0.04,-0.02,0.93
203.8,3.31,-27.07,1994.97,0,0,0,-0.04,-0.03,0.93
203.9,2.67,-27.89,1995.97,0,0,0,-0.04,-0.02,0.93
204,3.81,-27,1996.97,0,0,0,-0.04,-0.02,0.93
204.1,4.21,-26.69,1997.97,0,0,0,-0.04,-0.03,0.93
204.2,4.73,-27.2,1998.97,0,0,0,-0.03,-0.02,0.93
204.3,4.44,-27.01,1999.97,0,0,0,-0.04,-0.02,0.93
204.4,2.67,-25.83,2000.97,0,0,0,-0.04,-0.02,0.92
204.5,2.89,-25.9,2001.97,0,0,0,-0.04,-0.03,0.93
204.6,3.19,-26,2002.97,0,0,0,-0.04,-0.02,0.92
204.7,3.54,-26.36,2003.97,0,0,0,-0.03,-0.02,0.92
204.8,3.7,-26.52,2004.97,0,0,0,-0.04,-0.03,0.93
204.9,3.87,-27.34,2005.97,0,0,0,-0.04,-0.02,0.93
205,3.95,-27.36,2006.97,0,0,0,-0.03,-0.02,0.92
205.1,4.73,-27.2,2007.97,0,0,0,-0.04,-0.02,0.93
205.2,4.42,-27.26,2008.97,0,0,0,-0.04,-0.02,0.93
205.3,3.87,-27.37,2009.97,0,0,0,-0.04,-0.02,0.93
205.4,3.87,-26.72,2010.97,0,0,0,-0.04,-0.02,0.92
205.5,3.87,-26.35,2011.97,0,0,0,-0.04,-0.03,0.92
205.6,3.56,-27.58,2012.97,0,0,0,-0.04,-0.02,0.93
205.7,3.48,-27.69,2013.97,0,0,0,-0.04,-0.03,0.92
205.8,2.16,-27.03,2014.97,0,0,0,-0.04,-0.02,0.92
205.9,2.37,-27.14,2015.97,0,0,0,-0.04,-0.03,0.93
206,2.85,-27.37,2016.97,0,0,0,-0.03,-0.02,0.93
206.1,2.94,-26.68,2017.97,0,0,0,-0.04,-0.02,0.93
206.2,3.02,-26.17,2018.97,0,0,0,-0.04,-0.02,0.93
206.3,3.16,-28.07,2019.97,0,0,0,-0.04,-0.03,0.93
206.4,3.19,-28.4,2020.97,0,0,0,-0.04,-0.02,0.93
206.5,2.67,-25.83,2021.97,0,0,0,-0.04,-0.02,0.93
206.6,2.5,-26.1,2022.97,0,0,0,-0.04,-0.03,0.92
206.7,1.99,-26.86,2023.97,0,0,0,-0.04,-0.02,0.93
206.8,2.8,-27.13,2024.97,0,0,0,-0.04,-0.02,0.93
206.9,3.53,-27.37,2025.97,0,0,0,-0.04,-0.03,0.93
207,2.71,-27.1,2026.97,0,0,0,-0.04,-0.02,0.93
207.1,2.5,-27.03,2027.97,0,0,0,-0.04,-0.02,0.93
207.2,3.19,-26.35,2028.97,0,0,0,-0.04,-0.02,0.93
207.3,3.05,-26.42,2029.97,0,0,0,-0.04,-0.02,0.93
207.4,2.5,-26.69,2030.97,0,0,0,-0.04,-0.02,0.93
207.5,2.83,-26.53,2031.97,0,0,0,-0.04,-0.02,0.93
207.6,3.19,-26.35,2032.97,0,0,0,-0.04,-0.02,0.93
207.7,3.32,-26.47,2033.97,0,0,0,-0.04,-0.02,0.93
207.8,3.36,-26.52,2034.97,0,0,0,-0.04,-0.02,0.93
207.9,3.36,-27.2,2035.97,0,0,0,-0.04,-0.02,0.93
208,3.2,-27.15,2036.97,0,0,0,-0.04,-0.02,0.92
208.1,2.33,-26.86,2037.97,0,0,0,-0.04,-0.02,0.93
208.2,2.4,-26.93,2038.97,0,0,0,-0.04,-0.02,0.93
208.3,2.5,-27.03,2039.97,0,0,0,-0.04,-0.02,0.93
208.4,2.62,-26.91,2040.97,0,0,0,-0.04,-0.02,0.93
208.5,2.67,-26.86,2041.97,0,0,0,-0.04,-0.02,0.93
208.6,3.83,-26.69,2042.97,0,0,0,-0.04,-0.02,0.92
208.7,3.91,-26.59,2043.97,0,0,0,-0.04,-0.02,0.92
208.8,4.21,-25.66,2044.97,0,0,0,-0.04,-0.02,0.92
208.9,3.7,-26.04,2045.97,0,0,0,-0.04,-0.02,0.93
209,2.85,-26.69,2046.97,0,0,0,-0.04,-0.02,0.93
209.1,2.63,-27.35,2047.97,0,0,0,-0.04,-0.02,0.93
209.2,2.5,-27.71,2048.97,0,0,0,-0.04,-0.02,0.93
209.3,3.29,-27.25,2049.97,0,0,0,-0.04,-0.02,0.93
209.4,3.37,-27.24,2050.97,0.01,0,0,-0.04,-0.03,0.93
209.5,3.53,-28.06,2051.97,0,0,0,-0.04,-0.02,0.92
209.6,3.53,-27.95,2052.97,0,0,0,-0.04,-0.02,0.92
209.7,3.53,-27.71,2053.97,0,0,0,-0.04,-0.02,0.93
209.8,2.92,-26.91,2054.97,0,0,0,-0.04,-0.02,0.93
209.9,2.5,-26.35,2055.97,0,0,0,-0.03,-0.02,0.92
210,2.06,-26.79,2056.97,0,0,0,-0.04,-0.02,0.93
210.1,1.99,-26.86,2057.97,0,0,0,-0.04,-0.02,0.93
210.2,2.67,-26.52,2058.97,0,0,0,-0.04,-0.02,0.93
210.3,2.72,-26.75,2059.97,0,0,0,-0.04,-0.02,0.93
210.4,2.85,-27.37,2060.97,0,0,0,-0.03,-0.02,0.93
210.5,3.03,-27.56,2061.97,0,0,0,-0.04,-0.02,0.93
210.6,3.19,-27.71,2062.97,0,0,0,-0.04,-0.03,0.93
210.7,2.77,-26.46,2063.97,0,0,0,-0.04,-0.02,0.92
210.8,2.67,-26.17,2064.97,0,0,0,-0.03,-0.02,0.92
210.9,3.87,-27.37,2065.97,0,0,0,-0.04,-0.02,0.92
211,3.68,-27.34,2066.97,0,0,0,-0.04,-0.02,0.93
211.1,3.02,-27.2,2067.97,0,0,0,-0.04,-0.02,0.93
211.2,2.93,-26.45,2068.97,0,0,0,-0.04,-0.02,0.93
211.3,2.85,-25.66,2069.97,0,0,0,-0.04,-0.02,0.92
211.4,2.33,-25.4,2070.97,0,0,0,-0.04,-0.03,0.93
211.5,2.16,-25.32,2071.97,0,0,0,-0.04,-0.02,0.93
211.6,3.53,-27.03,2072.97,0,0,0,-0.04,-0.02,0.92
211.7,3.5,-26.89,2073.97,0,0,0,-0.04,-0.02,0.93
211.8,3.36,-26.17,2074.97,0,0,0,-0.04,-0.02,0.92
211.9,2.98,-26.4,2075.97,0,0,0,-0.04,-0.03,0.92
212,2.5,-26.69,2076.97,0,0,0,-0.04,-0.02,0.93
212.1,3.35,-26.57,2077.97,0,0,0,-0.03,-0.02,0.93
212.2,3.7,-26.52,2078.97,0,0,0,-0.03,-0.03,0.93
212.3,2.69,-26.85,2079.97,0,0,0,-0.04,-0.02,0.92
212.4,2.71,-26.7,2080.97,0,0,0,-0.04,-0.02,0.94
212.5,3.02,-25.49,2081.97,0,0,0,-0.04,-0.03,0.92
212.6,3.15,-26.42,2082.97,0,0,0,-0.03,-0.02,0.93
212.7,3.36,-27.89,2083.97,0,0,0,-0.04,-0.02,0.92
212.8,4.26,-27.21,2084.97,0,0,0,-0.04,-0.02,0.93
212.9,4.73,-26.86,2085.97,0,0,0,-0.04,-0.03,0.93
213,3.77,-26.54,2086.97,0,0,0,-0.04,-0.02,0.93
213.1,3.67,-26.51,2087.97,0,0,0,-0.04,-0.02,0.93
213.2,3.19,-26.35,2088.97,0,0,0,-0.04,-0.02,0.94
213.3,3.54,-26.58,2089.97,0,0,0,-0.04,-0.02,0.93
213.4,4.21,-27.03,2090.97,0,0,0,-0.03,-0.02,0.92
213.5,4.63,-27.03,2091.97,0,0,0,-0.03,-0.03,0.93
213.6,4.9,-27.03,2092.97,0,0,0,-0.04,-0.02,0.92
213.7,4.45,-26.58,2093.97,0,0,0,-0.03,-0.02,0.93
213.8,4.36,-26.52,2094.97,0,0,0,-0.03,-0.02,0.93
213.9,3.02,-26.52,2095.97,0,0,0,-0.04,-0.02,0.92
214,2.77,-26.17,2096.97,0,0,0,-0.03,-0.02,0.93
214.1,2.16,-25.32,2097.97,0,0,0,-0.04,-0.02,0.93
214.2,3.59,-26.37,2098.97,0,0,0,-0.04,-0.02,0.93
214.3,4.73,-27.2,2099.97,0,0,0,-0.03,-0.02,0.93
214.4,3.02,-26.07,2100.97,0,0,0,-0.04,-0.02,0.93
214.5,2.67,-25.83,2101.97,0,0,0,-0.03,-0.02,0.93
214.6,3.36,-27.2,2102.97,0,0,0,-0.04,-0.02,0.92
214.7,3.52,-26.96,2103.97,0,0,0,-0.04,-0.03,0.93
214.8,4.04,-26.17,2104.97,0,0,0,-0.04,-0.02,0.92
214.9,3.96,-26.78,2105.97,0,0,0,-0.04,-0.02,0.93
215,3.87,-27.37,2106.97,0,0,0,-0.04,-0.02,0.93
215.1,2.27,-25.51,2107.97,0,0,0,-0.04,-0.02,0.93
215.2,1.82,-24.98,2108.97,0,0,0,-0.04,-0.02,0.93
215.3,2.5,-26,2109.97,0,0,0,-0.04,-0.02,0.93
215.4,2.76,-26.13,2110.97,0,0,0,-0.04,-0.02,0.93
215.5,3.87,-26.69,2111.97,0,0,0,-0.04,-0.02,0.93
215.6,3.32,-26.92,2112.97,0,0,0,-0.04,-0.02,0.92
215.7,2.67,-27.2,2113.97,0,0,0,-0.04,-0.02,0.93
215.8,3.92,-26.45,2114.97,0,0,0,-0.04,-0.02,0.92
215.9,4.39,-26.17,2115.97,0,0,0,-0.04,-0.02,0.93
216,1.99,-26.86,2116.97,0,0,0,-0.03,-0.02,0.93
216.1,2.29,-26.65,2117.97,0,0,0,-0.04,-0.03,0.93
216.2,4.21,-25.32,2118.97,0,0,0,-0.04,-0.02,0.93
216.3,3.31,-26.09,2119.97,0,0,0,-0.04,-0.02,0.93
216.4,1.99,-27.2,2120.97,0,0,0,-0.04,-0.02,0.93
216.5,2.46,-26.27,2121.97,0,0,0,-0.04,-0.03,0.93
216.6,2.67,-25.83,2122.97,0,0,0,-0.04,-0.02,0.93
216.7,2.51,-26.97,2123.97,0,0,0,-0.03,-0.03,0.92
216.8,2.62,-26.97,2124.97,0,0,0,-0.04,-0.02,0.93
216.9,3.87,-26.35,2125.97,0,0,0,-0.04,-0.02,0.93
217,3.51,-26.59,2126.97,0,0,0,-0.03,-0.02,0.93
217.1,2.85,-27.03,2127.97,0,0,0,-0.04,-0.02,0.93
217.2,3.7,-26.82,2128.97,0,0,0,-0.04,-0.02,0.93
217.3,4.21,-26.69,2129.97,0,0,0,-0.04,-0.03,0.93
217.4,3.29,-25.77,2130.97,0,0,0,-0.04,-0.02,0.93
217.5,3.13,-25.66,2131.97,0,0,0,-0.04,-0.02,0.93
217.6,1.65,-25.49,2132.97,0,0,0,-0.04,-0.02,0.92
217.7,2.28,-26.12,2133.97,0,0,0,-0.04,-0.02,0.92
217.8,3.7,-27.54,2134.97,0,0,0,-0.04,-0.02,0.92
217.9,2.32,-26.75,2135.97,0,0,0,-0.04,-0.02,0.92
218,1.31,-26.17,2136.97,0,0,0,-0.04,-0.02,0.93
218.1,2.18,-27.62,2137.97,0,0,0,-0.04,-0.02,0.92
218.2,2.33,-27.89,2138.97,0,0,0,-0.04,-0.02,0.93
218.3,4.04,-26.86,2139.97,0,0,0,-0.04,-0.02,0.93
218.4,4.22,-26.6,2140.97,0,0,0,-0.04,-0.02,0.92
218.5,4.73,-25.83,2141.97,0,0,0,-0.04,-0.03,0.92
218.6,3.83,-26.37,2142.97,0,0,0,-0.04,-0.02,0.93
218.7,3.02,-26.86,2143.97,0,0,0,-0.04,-0.02,0.92
218.8,2.61,-26.18,2144.97,0,0,0,-0.04,-0.03,0.93
218.9,2.5,-26,2145.97,0,0,0,-0.04,-0.03,0.93
219,3.53,-26,2146.97,0,0,0,-0.04,-0.03,0.93
219.1,3.7,-26.04,2147.97,0,0,0,-0.04,-0.02,0.93
219.2,4.39,-26.17,2148.97,0,0,0,-0.04,-0.02,0.93
219.3,3.09,-26.17,2149.97,0,0,0,-0.03,-0.03,0.93
219.4,1.65,-26.17,2150.97,0,0,0,-0.04,-0.03,0.92
219.5,2.41,-26.17,2151.97,0,0,0,-0.04,-0.02,0.92
219.6,2.67,-26.17,2152.97,0,0,0,-0.03,-0.02,0.93
219.7,1.31,-26.52,2153.97,0,0,0,-0.04,-0.02,0.92
219.8,1.51,-26.31,2154.97,0,0,0,-0.04,-0.03,0.92
219.9,2.67,-25.15,2155.97,0,0,0,-0.04,-0.02,0.93
220,3.47,-26.23,2156.97,0,0,0,-0.04,-0.03,0.92
220.1,4.56,-27.71,2157.97,0,0,0,-0.04,-0.02,0.92
220.2,3.73,-26.89,2158.97,0,0,0,-0.04,-0.02,0.93
220.3,3.36,-26.52,2159.97,0,0,0,-0.04,-0.02,0.93
220.4,2.37,-26.85,2160.97,0,0,0,-0.04,-0.02,0.93
220.5,2.45,-26.78,2161.97,0,0,0,-0.04,-0.02,0.93
220.6,3.53,-26,2162.97,0,0,0,-0.04,-0.02,0.92
220.7,3.4,-25.88,2163.97,0,0,0,-0.04,-0.02,0.92
220.8,3.19,-25.66,2164.97,0,0,0,-0.04,-0.02,0.93
220.9,2.97,-26.1,2165.97,0,0,0,-0.04,-0.02,0.93
221,2.85,-26.35,2166.97,0,0,0,-0.04,-0.02,0.92
221.1,2.69,-27.13,2167.97,0,0,0,-0.04,-0.02,0.92
221.2,2.67,-27.13,2168.97,0,0,0,-0.03,-0.02,0.93
221.3,2.5,-25.66,2169.97,0,0,0,-0.04,-0.03,0.93
221.4,2.67,-25.72,2170.97,0,0,0,-0.03,-0.02,0.93
221.5,3.02,-25.83,2171.97,0,0,0,-0.04,-0.02,0.93
221.6,3.72,-26.14,2172.97,0,0,0,-0.04,-0.02,0.92
221.7,4.21,-26.35,2173.97,0,0,0,-0.03,-0.02,0.93
221.8,3.77,-27.09,2174.97,0,0,0,-0.04,-0.02,0.93
221.9,3.7,-27.2,2175.97,0,0,0,-0.03,-0.02,0.92
222,3.7,-25.49,2176.97,0,0,0,-0.04,-0.02,0.92
222.1,3.33,-25.77,2177.97,0,0,0,-0.04,-0.02,0.93
222.2,2.33,-26.52,2178.97,0,0,0,-0.04,-0.02,0.93
222.3,2.79,-27.53,2179.97,0,0,0,-0.04,-0.02,0.93
222.4,3.19,-28.4,2180.97,0,0,0,-0.04,-0.03,0.93
222.5,2.91,-27.84,2181.97,0,0,0,-0.04,-0.02,0.93
222.6,2.85,-27.71,2182.97,0,0,0,-0.04,-0.02,0.92
222.7,2.5,-26.35,2183.97,0,0,0,-0.04,-0.02,0.93
222.8,2.61,-26.46,2184.97,0,0,0,-0.04,-0.02,0.93
222.9,3.02,-26.86,2185.97,0,0,0,-0.04,-0.02,0.93
223,3.02,-27.03,2186.97,0,0,0,-0.04,-0.02,0.93
223.1,3.02,-27.2,2187.97,0,0,0,-0.04,-0.02,0.93
223.2,2.5,-26.68,2188.97,0,0,0,-0.04,-0.02,0.93
223.3,2.33,-26.52,2189.97,0,0,0,-0.04,-0.02,0.93
223.4,2.6,-26.79,2190.97,0,0,0,-0.04,-0.02,0.93
223.5,2.85,-27.03,2191.97,0,0,0,-0.04,-0.02,0.93
223.6,3.18,-26.04,2192.97,0,0,0,-0.04,-0.03,0.92
223.7,3.2,-25.92,2193.97,0,0,0,-0.04,-0.02,0.93
223.8,3.36,-25.15,2194.97,0,0,0,-0.04,-0.02,0.92
223.9,3.29,-25.72,2195.97,0,0,0,-0.04,-0.02,0.93
224,3.19,-26.69,2196.97,0,0,0,-0.04,-0.02,0.93
224.1,2.09,-26.47,2197.97,0,0,0,-0.04,-0.02,0.93
224.2,1.48,-26.35,2198.97,0,0,0,-0.04,-0.02,0.93
224.3,2.26,-27.76,2199.97,0,0,0,-0.04,-0.02,0.93
224.4,2.41,-27.86,2200.97,0,0,0,-0.04,-0.02,0.92
224.5,3.87,-27.37,2201.97,0,0,0,-0.04,-0.02,0.93
224.6,3.65,-26.82,2202.97,0,0,0,-0.04,-0.02,0.93
224.7,3.19,-25.66,2203.97,0,0,0,-0.04,-0.02,0.92
224.8,2.78,-26.27,2204.97,0,0,0,-0.04,-0.02,0.92
224.9,2.5,-26.69,2205.97,0,0,0,-0.04,-0.02,0.93
225,3.54,-25.95,2206.97,0,0,0,-0.04,-0.02,0.92
225.1,3.7,-25.83,2207.97,0,0,0,-0.04,-0.02,0.93
225.2,3.36,-25.49,2208.97,0,0,0,-0.04,-0.02,0.93
225.3,3.31,-26,2209.97,0,0,0,-0.03,-0.02,0.92
225.4,3.19,-27.37,2210.97,0,0,0,-0.04,-0.02,0.92
225.5,3.19,-27.19,2211.97,0,0,0,-0.04,-0.02,0.93
225.6,3.19,-27.03,2212.97,0,0,0,-0.04,-0.02,0.93
225.7,2.63,-26.48,2213.97,0,0,0,-0.04,-0.02,0.93
225.8,2.5,-26.35,2214.97,0,0,0,-0.04,-0.02,0.92
225.9,3.7,-27.54,2215.97,0,0,0,-0.04,-0.03,0.93
226,3.66,-27.66,2216.97,0,0,0,-0.04,-0.02,0.92
226.1,3.53,-28.06,2217.97,0,0,0,-0.04,-0.02,0.92
226.2,3.36,-27.39,2218.97,0,0,0,-0.03,-0.02,0.93
226.3,3.19,-26.69,2219.97,0,0,0,-0.03,-0.02,0.93
226.4,3.19,-27.21,2220.97,0,0,0,-0.03,-0.03,0.93
226.5,3.19,-27.37,2221.97,0,0,0,-0.04,-0.02,0.93
226.6,3.36,-26.17,2222.97,0,0,0,-0.04,-0.02,0.93
226.7,3.5,-26.49,2223.97,0,0,0,-0.04,-0.02,0.92
226.8,4.21,-28.06,2224.97,0,0,0,-0.04,-0.02,0.93
226.9,3.69,-27.53,2225.97,0,0,0,-0.04,-0.02,0.93
227,3.02,-26.86,2226.97,0,0,0,-0.04,-0.02,0.93
227.1,2.89,-27.22,2227.97,0,0,0,-0.04,-0.02,0.93
227.2,2.85,-27.37,2228.97,0,0,0,-0.04,-0.02,0.93
227.3,4.19,-27.04,2229.97,0,0,0,-0.03,-0.02,0.93
227.4,3.83,-26.97,2230.97,0,0,0,-0.04,-0.02,0.93
227.5,0.96,-26.52,2231.97,0,0,0,-0.04,-0.02,0.93
227.6,1.63,-26.92,2232.97,0,0,0,-0.04,-0.02,0.92
227.7,2.67,-27.54,2233.97,0,0,0,-0.04,-0.02,0.93
227.8,3.92,-26.3,2234.97,0,0,0,-0.04,-0.02,0.92
227.9,4.56,-25.66,2235.97,0,0,0,-0.04,-0.02,0.92
228,3.92,-27.58,2236.97,0,0,0,-0.04,-0.02,0.92
228.1,3.79,-27.57,2237.97,0,0,0,-0.04,-0.03,0.92
228.2,2.67,-25.49,2238.97,0,0,0,-0.04,-0.02,0.93
228.3,3.14,-25.95,2239.97,0,0,0,-0.04,-0.02,0.93
228.4,4.04,-26.86,2240.97,0,0,0,-0.04,-0.02,0.93
228.5,4.15,-26.13,2241.97,0,0,0,-0.04,-0.02,0.93
228.6,4.21,-25.66,2242.97,0,0,0,-0.04,-0.02,0.92
228.7,2.71,-28.07,2243.97,0,0,0,-0.04,-0.02,0.93
228.8,2.5,-28.36,2244.97,0,0,0,-0.04,-0.03,0.92
228.9,2.5,-26,2245.97,0,0,0,-0.04,-0.02,0.92
229,2.94,-26.35,2246.97,0,0,0,-0.04,-0.02,0.93
229.1,4.04,-27.2,2247.97,0,0,0,-0.03,-0.02,0.93
229.2,3.28,-26.82,2248.97,0,0,0,-0.04,-0.02,0.93
229.3,2.67,-26.52,2249.97,0,0,0,-0.04,-0.02,0.94
229.4,3.67,-26.94,2250.97,0,0,0,-0.04,-0.02,0.93
229.5,3.87,-27.03,2251.97,0,0,0,-0.04,-0.02,0.93
229.6,2.74,-26.35,2252.97,0,0,0,-0.03,-0.02,0.93
229.7,2.24,-25.92,2253.97,0,0,0,-0.04,-0.02,0.92
229.8,2.5,-25.66,2254.97,0,0,0,-0.04,-0.02,0.92
229.9,3.11,-25.75,2255.97,0,0,0,-0.04,-0.03,0.93
230,3.7,-25.83,2256.97,0,0,0,-0.04,-0.02,0.93
230.1,3.43,-26.9,2257.97,0,0,0,-0.04,-0.02,0.93
230.2,3.36,-27.2,2258.97,0,0,0,-0.04,-0.02,0.93
230.3,2.85,-26.35,2259.97,0,0,0,-0.04,-0.03,0.93
230.4,2.85,-26.35,2260.97,0,0,0,-0.03,-0.02,0.93
230.5,2.85,-26.35,2261.97,0,0,0,-0.04,-0.02,0.93
230.6,2.69,-26.35,2262.97,0,0,0,-0.04,-0.02,0.92
230.7,2.5,-26.35,2263.97,0,0,0,-0.03,-0.02,0.92
230.8,2.75,-27.84,2264.97,0,0,0,-0.04,-0.02,0.93
230.9,2.85,-28.4,2265.97,0,0,0,-0.04,-0.02,0.93
231,3.19,-25.33,2266.97,0,0,0,-0.04,-0.02,0.92
231.1,3.25,-25.52,2267.97,0,0,0,-0.03,-0.02,0.92
231.2,3.7,-26.86,2268.97,0,0,0,-0.04,-0.02,0.93
231.3,2.8,-26.79,2269.97,0,0,0,-0.04,-0.02,0.92
231.4,1.48,-26.69,2270.97,0,0,0,-0.03,-0.03,0.92
231.5,2.75,-27.49,2271.97,0,0,0,-0.04,-0.02,0.93
231.6,3.36,-27.89,2272.97,0,0,0,-0.04,-0.02,0.93
231.7,2.87,-26.75,2273.97,0,0,0,-0.04,-0.02,0.93
231.8,2.86,-26.59,2274.97,0,0,0,-0.04,-0.02,0.92
231.9,3.02,-25.49,2275.97,0,0,0,-0.04,-0.02,0.93
232,3.02,-25.73,2276.97,0,0,0,-0.04,-0.03,0.93
232.1,3.02,-26.17,2277.97,0,0,0,-0.03,-0.02,0.93
232.2,2.8,-26.39,2278.97,0,0,0,-0.04,-0.02,0.93
232.3,2.67,-26.52,2279.97,0,0,0,-0.04,-0.02,0.93
232.4,3.9,-25.3,2280.97,0,0,0,-0.03,-0.02,0.93
232.5,4.02,-25.19,2281.97,0,0,0,-0.04,-0.02,0.93
232.6,3.19,-26.69,2282.97,0,0,0,-0.04,-0.02,0.93
232.7,3.24,-26.84,2283.97,0,0,0,-0.04,-0.02,0.93
232.8,3.36,-27.2,2284.97,0,0,0,-0.04,-0.02,0.93
232.9,3.55,-27.01,2285.97,0,0,0,-0.04,-0.02,0.92
233,3.7,-26.86,2286.97,0,0,0,-0.04,-0.03,0.93
233.1,3.41,-25.71,2287.97,0,0,0,-0.04,-0.02,0.93
233.2,3.36,-25.49,2288.97,0,0,0,-0.04,-0.02,0.93
233.3,3.19,-28.06,2289.97,0,0,0,-0.04,-0.02,0.93
233.4,3.23,-27.51,2290.97,0,0,0,-0.04,-0.02,0.93
233.5,3.36,-25.83,2291.97,0,0,0,-0.04,-0.02,0.93
233.6,3.45,-26.45,2292.97,0,0,0,-0.04,-0.02,0.93
233.7,3.53,-27.03,2293.97,0,0,0,-0.04,-0.03,0.93
233.8,3.53,-27.3,2294.97,0,0,0,-0.03,-0.02,0.93
233.9,3.53,-27.37,2295.97,0,0,0,-0.03,-0.02,0.92
234,3.36,-25.49,2296.97,0,0,0,-0.04,-0.02,0.93
234.1,3.39,-25.59,2297.97,0,0,0,-0.04,-0.02,0.93
234.2,3.53,-26,2298.97,0,0,0,-0.04,-0.02,0.93
234.3,3.69,-26,2299.97,0,0,0,-0.04,-0.02,0.93
234.4,3.87,-26,2300.97,0,0,0,-0.04,-0.02,0.93
234.5,3.37,-26.51,2301.97,0,0,0,-0.04,-0.02,0.93
234.6,3.19,-26.69,2302.97,0,0,0,-0.03,-0.02,0.93
234.7,2.16,-26.69,2303.97,0,0,0,-0.04,-0.02,0.92
234.8,2.43,-26.81,2304.97,0,0,0,-0.04,-0.02,0.93
234.9,4.04,-27.54,2305.97,0,0,0,-0.04,-0.03,0.93
235,3.9,-26.69,2306.97,0,0,0,-0.03,-0.02,0.93
235.1,3.7,-25.49,2307.97,0,0,0,-0.04,-0.02,0.93
235.2,3.82,-25.84,2308.97,0,0,0,-0.04,-0.03,0.94
235.3,3.87,-26,2309.97,0,0,0,-0.03,-0.02,0.93
235.4,5.18,-26.33,2310.97,0,0,0,-0.04,-0.03,0.93
235.5,5.09,-26.35,2311.97,0,0,0,-0.04,-0.02,0.93
235.6,3.53,-26.35,2312.97,0,0,0,-0.04,-0.02,0.93
235.7,3.41,-26.47,2313.97,0,0,0,-0.04,-0.02,0.93
235.8,3.19,-26.69,2314.97,0,0,0,-0.04,-0.02,0.92
235.9,4.16,-25.28,2315.97,0,0,0,-0.03,-0.02,0.92
236,4.73,-24.46,2316.97,0,0,0,-0.04,-0.02,0.93
236.1,3.03,-26.78,2317.97,0,0,0,-0.04,-0.02,0.92
236.2,2.9,-27.02,2318.97,0,0,0,-0.03,-0.02,0.92
236.3,4.39,-26.86,2319.97,0.01,0,0,-0.04,-0.03,0.93
236.4,4.28,-26.75,2320.97,0,0,0,-0.04,-0.02,0.93
236.5,4.04,-26.52,2321.97,0,0,0,-0.04,-0.02,0.93
236.6,3.74,-26.62,2322.97,0,0,0,-0.04,-0.02,0.93
236.7,3.53,-26.69,2323.97,0,0,0,-0.04,-0.02,0.93
236.8,3.38,-27.42,2324.97,0,0,0,-0.04,-0.02,0.93
236.9,3.36,-27.54,2325.97,0,0,0,-0.04,-0.02,0.92
237,3.19,-26.69,2326.97,0,0,0,-0.04,-0.02,0.92
237.1,3.54,-26.69,2327.97,0,0,0,-0.03,-0.03,0.92
237.2,4.56,-26.69,2328.97,0,0,0,-0.04,-0.03,0.93
237.3,3.65,-26.33,2329.97,0,0,0,-0.04,-0.02,0.92
237.4,2.85,-26,2330.97,0,0,0,-0.04,-0.02,0.93
237.5,2.57,-26.82,2331.97,0,0,0,-0.03,-0.03,0.93
237.6,2.5,-27.03,2332.97,0,0,0,-0.03,-0.02,0.93
237.7,4.73,-25.15,2333.97,0,0,0,-0.03,-0.02,0.92
237.8,4.69,-25.32,2334.97,0,0,0,-0.04,-0.02,0.92
237.9,4.56,-26,2335.97,0,0,0,-0.04,-0.02,0.92
238,3.91,-26.65,2336.97,0,0,0,-0.03,-0.02,0.92
238.1,3.19,-27.37,2337.97,0,0,0,-0.04,-0.02,0.92
238.2,2.17,-25.85,2338.97,0,0,0,-0.04,-0.02,0.92
238.3,1.82,-25.32,2339.97,0,0,0,-0.03,-0.02,0.93
238.4,4.04,-26.86,2340.97,0,0,0,-0.04,-0.02,0.93
238.5,4.02,-27.04,2341.97,0,0,0,-0.04,-0.02,0.93
238.6,3.87,-28.06,2342.97,0,0,0,-0.04,-0.02,0.92
238.7,3.51,-27.41,2343.97,0,0,0,-0.03,-0.02,0.92
238.8,3.02,-26.52,2344.97,0,0,0,-0.04,-0.02,0.93
238.9,3.37,-26.4,2345.97,0,0,0,-0.04,-0.02,0.92
239,3.53,-26.35,2346.97,0,0,0,-0.04,-0.02,0.93
239.1,4.19,-26.68,2347.97,0,0,0,-0.03,-0.02,0.92
239.2,4.3,-26.67,2348.97,0,0,0,-0.04,-0.02,0.93
239.3,5.07,-26.52,2349.97,0,0,0,-0.04,-0.02,0.93
239.4,4.12,-26.33,2350.97,0,0,0,-0.03,-0.02,0.93
239.5,2.5,-26,2351.97,0,0,0,-0.04,-0.03,0.93
239.6,3.71,-26.11,2352.97,0,0,0,-0.04,-0.02,0.93
239.7,4.39,-26.17,2353.97,0,0,0,-0.04,-0.02,0.93
239.8,3.6,-27.27,2354.97,0,0,0,-0.03,-0.02,0.92
239.9,3.52,-27.35,2355.97,0,0,0,-0.04,-0.02,0.92
240,3.36,-26.86,2356.97,0,0,0,-0.04,-0.02,0.92
240.1,3.36,-27.08,2357.97,0,0,0,-0.04,-0.02,0.93
240.2,3.36,-27.54,2358.97,0,0,0,-0.04,-0.02,0.92
240.3,2.55,-26.53,2359.97,0,0,0,-0.04,-0.02,0.93
240.4,1.99,-25.83,2360.97,0,0,0,-0.04,-0.02,0.93
240.5,4.5,-26.28,2361.97,0,0,0,-0.04,-0.02,0.93
240.6,4.9,-26.35,2362.97,0,0,0,-0.04,-0.02,0.93
240.7,3.7,-27.89,2363.97,0,0,0,-0.04,-0.02,0.93
240.8,3.38,-27.47,2364.97,0,0,0,-0.03,-0.02,0.92
240.9,2.5,-26.35,2365.97,0,0,0,-0.04,-0.02,0.92
241,3.43,-26.16,2366.97,0,0,0,-0.04,-0.02,0.93
241.1,4.21,-26,2367.97,0,0,0,-0.04,-0.02,0.93
241.2,2.55,-26.56,2368.97,0,0,0,-0.04,-0.03,0.93
241.3,2.16,-26.69,2369.97,0,0,0,-0.04,-0.02,0.93
241.4,3.53,-26.69,2370.97,0,0,0,-0.03,-0.03,0.92
241.5,3.34,-26.65,2371.97,0,0,0,-0.04,-0.03,0.93
241.6,2.67,-26.52,2372.97,0,0,0,-0.03,-0.02,0.92
241.7,3.09,-27.1,2373.97,0,0,0,-0.04,-0.02,0.93
241.8,3.53,-27.71,2374.97,0,0,0,-0.04,-0.02,0.93
241.9,4.05,-26.41,2375.97,0,0,0,-0.04,-0.02,0.93
242,4.21,-26,2376.97,0,0,0,-0.04,-0.03,0.93
242.1,2.67,-26.17,2377.97,0,0,0,-0.04,-0.02,0.92
242.2,2.62,-26.12,2378.97,0,0,0,-0.04,-0.02,0.93
242.3,2.33,-25.83,2379.97,0,0,0,-0.04,-0.02,0.93
242.4,2.63,-26.59,2380.97,0,0,0,-0.04,-0.03,0.93
242.5,3.02,-27.54,2381.97,0,0,0,-0.04,-0.02,0.93
242.6,3.14,-27.18,2382.97,0,0,0,-0.03,-0.02,0.93
242.7,3.19,-27.03,2383.97,0,0,0,-0.04,-0.02,0.93
242.8,4.19,-25.02,2384.97,0,0,0,-0.04,-0.02,0.93
242.9,4.13,-25.22,2385.97,0,0,0,-0.04,-0.02,0.92
243,3.53,-27.03,2386.97,0,0,0,-0.04,-0.02,0.92
243.1,3.26,-26.5,2387.97,0,0,0,-0.04,-0.02,0.92
243.2,2.85,-25.66,2388.97,0,0,0,-0.03,-0.02,0.93
243.3,2.62,-26.34,2389.97,0,0,0,-0.03,-0.02,0.93
243.4,2.5,-26.69,2390.97,0,0,0,-0.03,-0.02,0.92
243.5,2.5,-26.05,2391.97,0,0,0,-0.04,-0.02,0.93
243.6,2.62,-26.08,2392.97,0,0,0,-0.04,-0.02,0.93
243.7,4.39,-27.2,2393.97,0,0,0,-0.04,-0.02,0.93
243.8,3.64,-27.38,2394.97,0,0,0,-0.04,-0.02,0.92
243.9,2.16,-27.71,2395.97,0,0,0,-0.04,-0.02,0.92
244,2.99,-27.71,2396.97,0,0,0,-0.04,-0.02,0.92
244.1,3.53,-27.71,2397.97,0,0,0,-0.04,-0.02,0.92
244.2,3.08,-26.06,2398.97,0,0,0,-0.04,-0.02,0.92
244.3,3.02,-25.84,2399.97,0,0,0,-0.04,-0.02,0.93
244.4,3.19,-26,2400.97,0,0,0,-0.04,-0.03,0.93
244.5,3.38,-26.59,2401.97,0,0,0,-0.03,-0.02,0.93
244.6,3.87,-28.06,2402.97,0,0,0,-0.04,-0.02,0.93
244.7,3.59,-27.58,2403.97,0,0,0,-0.04,-0.03,0.93
244.8,3.36,-27.2,2404.97,0,0,0,-0.04,-0.03,0.93
244.9,3.5,-26.49,2405.97,0,0,0,-0.03,-0.02,0.92
245,3.53,-26.35,2406.97,0,0,0,-0.04,-0.02,0.92
245.1,3.7,-25.49,2407.97,0.01,0,0,-0.04,-0.03,0.92
245.2,3.82,-25.77,2408.97,0.01,0,0,-0.04,-0.02,0.93
245.3,4.21,-26.69,2409.97,0,0,0,-0.04,-0.02,0.93
245.4,3.43,-26.6,2410.97,0,0,0,-0.04,-0.03,0.93
245.5,2.67,-26.52,2411.97,0,0,0,-0.04,-0.02,0.93
245.6,3.74,-25.99,2412.97,0,0,0,-0.04,-0.02,0.93
245.7,4.04,-25.83,2413.97,0,0,0,-0.04,-0.02,0.92
245.8,3.53,-25.66,2414.97,0,0,0,-0.04,-0.02,0.92
245.9,3.47,-25.91,2415.97,0,0,0,-0.03,-0.02,0.92
246,3.19,-27.03,2416.97,0,0,0,-0.04,-0.02,0.92
246.1,3.34,-26.41,2417.97,0,0,0,-0.04,-0.02,0.92
246.2,3.53,-25.66,2418.97,0,0,0,-0.04,-0.02,0.93
246.3,3.28,-25.91,2419.97,0,0,0,-0.04,-0.02,0.93
246.4,3.19,-26,2420.97,0,0,0,-0.04,-0.02,0.93
246.5,3.02,-27.54,2421.97,0,0,0,-0.04,-0.02,0.93
246.6,3.04,-27.38,2422.97,0,0,0,-0.04,-0.02,0.94
246.7,3.19,-26.35,2423.97,0,0,0,-0.04,-0.02,0.93
246.8,2.98,-26.69,2424.97,0,0,0,-0.04,-0.02,0.92
246.9,2.67,-27.2,2425.97,0,0,0,-0.04,-0.02,0.92
247,3.25,-26.39,2426.97,0,0,0,-0.04,-0.02,0.92
247.1,3.53,-26,2427.97,0,0,0,-0.04,-0.02,0.92
247.2,3.37,-26.82,2428.97,0,0,0,-0.04,-0.02,0.93
247.3,3.34,-26.88,2429.97,0,0,0,-0.04,-0.03,0.93
247.4,3.19,-27.03,2430.97,0,0,0,-0.04,-0.02,0.94
247.5,3.19,-27.03,2431.97,0,0,0,-0.03,-0.02,0.93
247.6,3.19,-27.03,2432.97,0,0,0,-0.03,-0.03,0.93
247.7,3.19,-26.18,2433.97,0,0,0,-0.04,-0.02,0.93
247.8,3.19,-25.66,2434.97,0,0,0,-0.04,-0.02,0.93
247.9,2.27,-26.89,2435.97,0,0,0,-0.04,-0.02,0.92
248,2.18,-27.01,2436.97,0,0,0,-0.04,-0.02,0.92
248.1,2.85,-26.35,2437.97,0,0,0,-0.03,-0.02,0.92
248.2,3.31,-26.19,2438.97,0,0,0,-0.03,-0.02,0.93
248.3,4.39,-25.83,2439.97,0,0,0,-0.03,-0.02,0.92
248.4,3.9,-26.72,2440.97,0,0,0,-0.04,-0.02,0.94
248.5,3.53,-27.37,2441.97,0,0,0,-0.04,-0.02,0.93
248.6,3.1,-25.5,2442.97,0,0,0,-0.04,-0.02,0.93
248.7,3.02,-25.15,2443.97,0,0,0,-0.04,-0.02,0.93
248.8,3.7,-26.52,2444.97,0,0,0,-0.04,-0.02,0.93
248.9,3.36,-26.43,2445.97,0,0,0,-0.04,-0.02,0.93
249,2.33,-26.17,2446.97,0,0,0,-0.04,-0.02,0.92
249.1,2.6,-26.44,2447.97,0,0,0,-0.04,-0.02,0.93
249.2,2.85,-26.69,2448.97,0,0,0,-0.04,-0.02,0.93
249.3,4.06,-27.64,2449.97,0,0,0,-0.04,-0.02,0.93
249.4,4.39,-27.89,2450.97,0,0,0,-0.04,-0.02,0.93
249.5,3.19,-26.69,2451.97,0,0,0,-0.04,-0.03,0.93
249.6,3.12,-26.69,2452.97,0,0,0,-0.04,-0.02,0.93
249.7,2.85,-26.69,2453.97,0,0,0,-0.04,-0.02,0.92
249.8,2.69,-26.85,2454.97,0,0,0,-0.04,-0.02,0.92
249.9,2.5,-27.03,2455.97,0,0,0,-0.04,-0.02,0.92
250,3.26,-26.53,2456.97,0,0,0,-0.03,-0.02,0.92
250.1,3.53,-26.35,2457.97,0,0,0,-0.04,-0.02,0.93
250.2,3.87,-25.66,2458.97,0,0,0,-0.04,-0.02,0.93
250.3,3.95,-25.79,2459.97,0,0,0,-0.04,-0.02,0.92
250.4,4.39,-26.52,2460.97,0,0,0,-0.04,-0.02,0.93
250.5,3.88,-26.59,2461.97,0,0,0,-0.04,-0.03,0.93
250.6,3.19,-26.69,2462.97,0,0,0,-0.04,-0.02,0.93
250.7,3.42,-26.22,2463.97,0,0,0,-0.04,-0.02,0.93
250.8,3.53,-26,2464.97,0,0,0,-0.04,-0.02,0.93
250.9,3.37,-26.83,2465.97,0,0,0,-0.04,-0.03,0.92
251,3.33,-27.02,2466.97,0,0,0,-0.04,-0.02,0.93
251.1,3.02,-28.57,2467.97,0,0,0,-0.04,-0.02,0.92
251.2,3.33,-27.76,2468.97,0,0,0,-0.04,-0.02,0.93
251.3,3.87,-26.35,2469.97,-0.01,0,0,-0.04,-0.02,0.93
251.4,3.87,-27,2470.97,0,0,0,-0.03,-0.03,0.93
