time	x	y	z	gx	gy	gz	ax	ay	az
0.074	-29	-25.85	-21.02	0	0	0	0	0	0
0.075	-29.14	-25.83	-20.91	0	0	0	0	0	0
0.075	-28.97	-24.67	-22.05	0	0	0	0	0	0
0.076	-28.87	-24.78	-22.36	0	0	0	0	0	0
0.076	-28.63	-25.02	-23.05	0	0	0	0	0	0
0.086	-28.73	-24.92	-22.57	0	0	0	0	0	0
0.105	-28.8	-24.84	-22.22	0	0	0	0	0	0
0.118	-29.09	-23.39	-23.07	0	0	0	0	0	0
0.133	-29.15	-23.13	-23.22	0	0	0	0	0	0
0.16	-29.66	-22.62	-22.05	0	0	0	0	0	0
0.18	-29.7	-22.84	-22.26	0	0	0	0	0	0
0.191	-29.83	-23.48	-22.89	0	0	0	0	0	0
0.204	-29.12	-22.41	-23.93	0	0	0	0	0	0
0.22	-28.46	-21.42	-24.9	0	0	0	0	0	0
0.234	-28.19	-21.96	-23.58	0	0	0	0	0	0
0.25	-28.12	-22.11	-23.22	0	0	0	0	0	0
0.279	-29.49	-21.08	-24.23	0	0	0	0	0	0
0.293	-29.42	-20.95	-24.23	0	0	0	0	0	0
0.31	-29.15	-20.4	-24.23	0	0	0	0	0	0
0.33	-29.3	-19.93	-24.69	0	0	0	0	0	0
0.338	-29.49	-19.37	-25.23	0	0	0	0	0	0
0.354	-29.86	-19.74	-24.87	0	0	0	0	0	0
0.368	-30	-19.88	-24.73	0	0	0	0	0	0
0.385	-29.15	-20.73	-27.56	0	0	0	0	0	0
0.412	-28.97	-20.7	-27.45	0	0	0	0	0	0
0.427	-27.78	-20.4	-26.57	0	0	0	0	0	0
0.447	-27.85	-20.19	-26.37	0	0	0	0	0	0
0.465	-27.95	-19.88	-26.07	0	0	0	0	0	0
0.474	-26.82	-21.02	-26.51	0	0	0	0	0	0
0.49	-26.24	-21.59	-26.74	0	0	0	0	0	0
0.505	-25.44	-20.8	-26.58	0	0	0	0	0	0
0.531	-25.35	-21.02	-26.72	0	0	0	0	0	0
0.546	-24.87	-25.02	-28.75	0	0	0	0	0	0
0.56	-24.35	-24.96	-28.58	0	0	0	0	0	0
0.594	-23.33	-24.84	-28.25	0	0	0	0	0	0
0.596	-22.61	-27.01	-28.35	0	0	0	0	0	0
0.605	-22.13	-28.44	-28.42	0	0	0	0	0	0
0.62	-18.25	-31.12	-27.83	0	0	0	0	0	0
0.649	-17.68	-31.52	-27.74	0	0	0	0	0	0
0.664	-16.66	-32.54	-26.74	0	0	0	0	0	0
0.679	-16.05	-32.97	-26.79	0	0	0	0	0	0
0.693	-14.43	-34.08	-26.91	0	0	0	0	0	0
0.708	-13.23	-35.85	-27.73	0	0	0	0	0	0
0.732	-12.21	-37.34	-28.42	0	0	0	0	0	0
0.753	-7.63	-38.31	-27.74	0	0	0	0	0	0
0.754	-6.56	-38.53	-27.58	0	0	0	0	0	0
0.783	-3.99	-41.44	-27.08	0	0	0	0	0	0
0.797	-3.52	-42.35	-27.18	0	0	0	0	0	0
0.811	-1.77	-45.72	-27.58	0	0	0	0	0	0
0.827	-1.52	-46.63	-25.88	0	0	0	0	0	0
0.841	-1.26	-47.6	-24.06	0	0	0	0	0	0
0.874	0.28	-49.14	-22.3	0	0	0	0	0	0
0.875	0.79	-49.65	-21.71	0	0	0	0	0	0
0.901	1.82	-50.68	-21.04	0	0	0	0	0	0
0.916	1.9	-50.81	-20.81	0	0	0	0	0	0
0.93	2.33	-51.54	-19.54	0	0	0	0	0	0
0.945	1.83	-51.9	-19.75	0	0	0	0	0	0
0.96	1.14	-52.39	-20.04	0	0	0	0	0	0
0.975	0.08	-52.27	-18.08	0	0	0	0	0	0
0.989	-0.4	-52.22	-17.19	0	0	0	0	0	0
1.007	-0.73	-52.55	-18.15	0	0	0	0	0	0
1.035	-0.86	-52.64	-18.05	0	0	0	0	0	0
1.054	-1.94	-53.42	-16.69	0	0	0	0	0	0
1.063	-2.31	-53.67	-16.56	0	0	0	0	0	0
1.079	-2.97	-54.1	-16.35	0	0	0	0	0	0
1.093	-3.4	-54.1	-17.19	0	0	0	0	0	0
1.107	-3.65	-54.1	-17.69	0	0	0	0	0	0
1.125	-5.5	-53.8	-18.29	0	0	0	0	0	0
1.157	-5.71	-53.76	-18.42	0	0	0	0	0	0
1.168	-5.71	-53.76	-20.37	0	0	0	0	0	0
1.182	-6.07	-52.99	-20.32	0	0	0	0	0	0
1.197	-6.9	-51.19	-20.21	0	0	0	0	0	0
1.211	-8.07	-51.58	-20.21	0	0	0	0	0	0
1.227	-8.96	-51.88	-20.21	0	0	0	0	0	0
1.242	-9.81	-52.17	-21.6	0	0	0	0	0	0
1.255	-9.98	-52.22	-21.88	0	0	0	0	0	0
1.289	-12.72	-49.48	-20.54	0	0	0	0	0	0
1.3	-12.8	-49.4	-20.86	0	0	0	0	0	0
1.315	-13.06	-49.14	-21.88	0	0	0	0	0	0
1.33	-14.45	-48.45	-21.03	0	0	0	0	0	0
1.344	-15.8	-47.77	-20.21	0	0	0	0	0	0
1.359	-14.35	-46.06	-16.71	0	0	0	0	0	0
1.376	-13.92	-45.55	-15.68	0	0	0	0	0	0
1.403	-15.63	-44.18	-14.68	0	0	0	0	0	0
1.422	-15.57	-44	-13.72	0	0	0	0	0	0
1.444	-15.29	-43.15	-9.31	0	0	0	0	0	0
1.448	-15.52	-42.01	-7.89	0	0	0	0	0	0
1.462	-15.8	-40.59	-6.13	0	0	0	0	0	0
1.478	-15.68	-39.49	-4.34	0	0	0	0	0	0
1.494	-15.63	-39.05	-3.61	0	0	0	0	0	0
1.507	-16.13	-38.54	-0.82	0	0	0	0	0	0
1.546	-16.04	-38.43	-0.67	0	0	0	0	0	0
1.552	-15.29	-37.68	0.07	0	0	0	0	0	0
1.567	-15.94	-36.89	1.49	0	0	0	0	0	0
1.581	-17	-35.62	3.76	0	0	0	0	0	0
1.596	-18.11	-35.4	4.63	0	0	0	0	0	0
1.615	-18.71	-35.28	5.1	0	0	0	0	0	0
1.628	-18.24	-33.55	6.49	0	0	0	0	0	0
1.655	-18.27	-33.4	6.74	0	0	0	0	0	0
1.671	-19.56	-33.4	8.95	0	0	0	0	0	0
1.71	-19.73	-33.01	8.9	0	0	0	0	0	0
1.711	-20.08	-32.2	8.79	0	0	0	0	0	0
1.714	-21.09	-31.8	9.18	0	0	0	0	0	0
1.731	-21.79	-31.52	9.46	0	0	0	0	0	0
1.75	-21.5	-31.81	10.32	0	0	0	0	0	0
1.758	-21.45	-31.86	10.46	0	0	0	0	0	0
1.788	-22.47	-31.52	10.13	0	0	0	0	0	0
1.808	-22.61	-31.38	9.82	0	0	0	0	0	0
1.817	-22.99	-31	8.95	0	0	0	0	0	0
1.832	-23.17	-31.37	9.13	0	0	0	0	0	0
1.847	-23.33	-31.69	9.29	0	0	0	0	0	0
1.863	-23.33	-31.42	11.7	0	0	0	0	0	0
1.876	-23.33	-31.35	12.3	0	0	0	0	0	0
1.907	-21.62	-30.32	11.3	0	0	0	0	0	0
1.927	-21.76	-30.46	11.3	0	0	0	0	0	0
1.937	-22.3	-31	11.3	0	0	0	0	0	0
1.952	-22.71	-31.09	11.69	0	0	0	0	0	0
1.966	-23.16	-31.18	12.14	0	0	0	0	0	0
1.981	-23.03	-31.56	13.25	0	0	0	0	0	0
1.998	-22.99	-31.69	13.65	0	0	0	0	0	0
2.025	-22.99	-31.35	11.3	0	0	0	0	0	0
2.04	-22.91	-31.37	11.23	0	0	0	0	0	0
2.054	-22.47	-31.52	10.8	0	0	0	0	0	0
2.079	-22.2	-31.66	11.34	0	0	0	0	0	0
2.087	-21.79	-31.86	12.14	0	0	0	0	0	0
2.099	-21.33	-32.55	10.55	0	0	0	0	0	0
2.115	-21.1	-32.89	9.79	0	0	0	0	0	0
2.128	-19.97	-33.69	8.68	0	0	0	0	0	0
2.158	-19.78	-33.95	8.61	0	0	0	0	0	0
2.173	-18.37	-36.31	8.45	0	0	0	0	0	0
2.194	-17.95	-36.37	7.69	0	0	0	0	0	0
2.22	-17.17	-36.48	6.27	0	0	0	0	0	0
2.221	-16.75	-36.69	5.86	0	0	0	0	0	0
2.233	-16.49	-36.82	5.6	0	0	0	0	0	0
2.247	-16.94	-38.18	4.56	0	0	0	0	0	0
2.277	-16.96	-38.38	4.37	0	0	0	0	0	0
2.291	-14.6	-39.73	0.41	0	0	0	0	0	0
2.306	-14.01	-39.83	0.21	0	0	0	0	0	0
2.351	-12.55	-40.07	-0.26	0	0	0	0	0	0
2.352	-13.22	-40.93	-2.22	0	0	0	0	0	0
2.354	-13.75	-41.61	-3.78	0	0	0	0	0	0
2.371	-14.17	-40.34	-4.47	0	0	0	0	0	0
2.381	-14.26	-40.07	-4.62	0	0	0	0	0	0
2.41	-13.58	-43.15	-6.3	0	0	0	0	0	0
2.426	-13.77	-43.5	-7.25	0	0	0	0	0	0
2.441	-14.43	-44.69	-10.49	0	0	0	0	0	0
2.455	-14.52	-45.45	-10.4	0	0	0	0	0	0
2.486	-14.6	-46.23	-10.32	0	0	0	0	0	0
2.486	-15.78	-47.93	-11.21	0	0	0	0	0	0
2.499	-16.14	-48.46	-11.49	0	0	0	0	0	0
2.528	-16.49	-48.8	-12.5	0	0	0	0	0	0
2.543	-16.34	-49.11	-12.69	0	0	0	0	0	0
2.558	-15.63	-50.68	-13.67	0	0	0	0	0	0
2.572	-16.15	-50.76	-14.32	0	0	0	0	0	0
2.601	-16.83	-50.85	-15.18	0	0	0	0	0	0
2.602	-15.5	-51.45	-16	0	0	0	0	0	0
2.62	-14.94	-51.71	-16.35	0	0	0	0	0	0
2.632	-15.77	-52.87	-15.21	0	0	0	0	0	0
2.661	-15.91	-52.94	-15.35	0	0	0	0	0	0
2.677	-16.83	-53.25	-16.85	0	0	0	0	0	0
2.691	-16.89	-53.44	-16.54	0	0	0	0	0	0
2.705	-17	-53.76	-16.02	0	0	0	0	0	0
2.745	-17.33	-52.55	-16.12	0	0	0	0	0	0
2.746	-17.51	-51.88	-16.18	0	0	0	0	0	0
2.75	-17.67	-51.72	-17.56	0	0	0	0	0	0
2.78	-17.75	-51.78	-17.62	0	0	0	0	0	0
2.795	-19.22	-53.25	-16.18	0	0	0	0	0	0
2.81	-18.64	-53.51	-17.07	0	0	0	0	0	0
2.824	-17.34	-54.1	-19.03	0	0	0	0	0	0
2.84	-17.94	-53.9	-17.48	0	0	0	0	0	0
2.855	-18.37	-53.76	-16.35	0	0	0	0	0	0
2.869	-17.5	-53.76	-16.64	0	0	0	0	0	0
2.884	-17.34	-53.76	-16.69	0	0	0	0	0	0
2.914	-19.05	-54.1	-18.7	0	0	0	0	0	0
2.928	-18.54	-54.02	-18.53	0	0	0	0	0	0
2.942	-17	-53.76	-18.03	0	0	0	0	0	0
2.958	-16.56	-54.2	-17.07	0	0	0	0	0	0
2.973	-16.14	-54.62	-16.18	0	0	0	0	0	0
2.989	-15.74	-54.75	-13.95	0	0	0	0	0	0
3.001	-15.63	-54.79	-13.33	0	0	0	0	0	0
3.061	-11.87	-55.81	-12.33	0	0	0	0	0	0
3.064	-11.8	-55.56	-11.95	0	0	0	0	0	0
3.065	-11.52	-54.44	-10.32	0	0	0	0	0	0
3.076	-10.74	-55.07	-9.7	0	0	0	0	0	0
3.091	-9.81	-55.81	-8.98	0	0	0	0	0	0
3.107	-8.07	-54.32	-8.25	0	0	0	0	0	0
3.119	-7.42	-53.76	-7.97	0	0	0	0	0	0
3.136	-5.55	-52.23	-10.14	0	0	0	0	0	0
3.165	-5.3	-51.98	-10.34	0	0	0	0	0	0
3.18	-3.65	-50.34	-11.66	0	0	0	0	0	0
3.197	-3.05	-50.14	-12.38	0	0	0	0	0	0
3.21	-2.11	-49.82	-13.5	0	0	0	0	0	0
3.224	-0.78	-48.49	-15.03	0	0	0	0	0	0
3.238	-0.06	-47.77	-15.85	0	0	0	0	0	0
3.253	-0.53	-46.98	-19.71	0	0	0	0	0	0
3.283	-0.66	-46.75	-20.16	0	0	0	0	0	0
3.298	-2.11	-44.01	-22.22	0	0	0	0	0	0
3.313	-2.28	-42.96	-24.11	0	0	0	0	0	0
3.329	-2.63	-40.76	-28.08	0	0	0	0	0	0
3.345	-3.64	-39.54	-29.27	0	0	0	0	0	0
3.375	-4.34	-38.7	-30.09	0	0	0	0	0	0
3.376	-4.19	-34.44	-30.81	0	0	0	0	0	0
3.388	-4.17	-33.74	-30.93	0	0	0	0	0	0
3.423	-7.25	-29.98	-32.94	0	0	0	0	0	0
3.435	-8.37	-29.49	-33.25	0	0	0	0	0	0
3.447	-11.52	-28.1	-34.11	0	0	0	0	0	0
3.462	-13.7	-27.19	-33.22	0	0	0	0	0	0
3.477	-15.63	-26.39	-32.44	0	0	0	0	0	0
3.493	-17	-24.74	-32.71	0	0	0	0	0	0
3.506	-17.34	-24.33	-32.77	0	0	0	0	0	0
3.534	-19.56	-21.42	-32.27	0	0	0	0	0	0
3.557	-19.56	-21.56	-32.54	0	0	0	0	0	0
3.571	-19.56	-22.11	-33.61	0	0	0	0	0	0
3.581	-20.13	-21.38	-33.69	0	0	0	0	0	0
3.595	-20.76	-20.57	-33.78	0	0	0	0	0	0
3.612	-20.38	-20.44	-33.41	0	0	0	0	0	0
3.625	-20.25	-20.4	-33.28	0	0	0	0	0	0
3.654	-21.45	-20.57	-33.11	0	0	0	0	0	0
3.67	-21.59	-20.32	-33.16	0	0	0	0	0	0
3.708	-22.47	-18.86	-33.44	0	0	0	0	0	0
3.71	-22.26	-19.63	-33.65	0	0	0	0	0	0
3.715	-21.96	-20.74	-33.95	0	0	0	0	0	0
3.732	-23.36	-19.34	-32.12	0	0	0	0	0	0
3.742	-24.01	-18.69	-31.27	0	0	0	0	0	0
3.758	-22.88	-19.17	-30.47	0	0	0	0	0	0
3.786	-22.79	-19.23	-30.34	0	0	0	0	0	0
3.801	-22.47	-19.54	-29.42	0	0	0	0	0	0
3.828	-23.31	-20.5	-29.3	0	0	0	0	0	0
3.83	-24.87	-22.28	-29.09	0	0	0	0	0	0
3.846	-24.77	-21.12	-29.19	0	0	0	0	0	0
3.862	-24.7	-20.4	-29.25	0	0	0	0	0	0
3.875	-25	-19.79	-29.85	0	0	0	0	0	0
3.905	-25.04	-19.77	-29.94	0	0	0	0	0	0
3.92	-24.87	-22.28	-30.76	0	0	0	0	0	0
3.934	-25.07	-22.08	-30.76	0	0	0	0	0	0
3.956	-25.55	-21.59	-30.76	0	0	0	0	0	0
3.97	-24.41	-21.21	-29.08	0	0	0	0	0	0
3.98	-23.5	-20.91	-27.75	0	0	0	0	0	0
3.993	-23.92	-20.49	-28.16	0	0	0	0	0	0
4.008	-24.01	-20.4	-28.25	0	0	0	0	0	0
4.038	-25.21	-20.23	-30.76	0	0	0	0	0	0
4.053	-24.7	-20.5	-30.42	0	0	0	0	0	0
4.088	-22.99	-21.42	-29.25	0	0	0	0	0	0
4.094	-23.66	-21.42	-29.75	0	0	0	0	0	0
4.105	-24.35	-21.42	-30.26	0	0	0	0	0	0
4.117	-23.83	-21.95	-31.03	0	0	0	0	0	0
4.128	-23.67	-22.11	-31.27	0	0	0	0	0	0
4.157	-23.67	-21.42	-30.26	0	0	0	0	0	0
4.171	-23.76	-21.57	-30.18	0	0	0	0	0	0
4.187	-24.18	-22.28	-29.76	0	0	0	0	0	0
4.204	-23.74	-21.98	-30.34	0	0	0	0	0	0
4.216	-23.16	-21.59	-31.1	0	0	0	0	0	0
4.232	-23.52	-21.71	-30.74	0	0	0	0	0	0
4.245	-23.67	-21.77	-30.6	0	0	0	0	0	0
4.261	-22.67	-22.76	-30.27	0	0	0	0	0	0
4.29	-22.77	-22.74	-30.31	0	0	0	0	0	0
4.313	-23.84	-22.28	-30.76	0	0	0	0	0	0
4.333	-23.78	-22.47	-30.7	0	0	0	0	0	0
4.336	-23.67	-22.79	-30.6	0	0	0	0	0	0
4.351	-23.11	-22.01	-30.05	0	0	0	0	0	0
4.37	-22.81	-21.59	-29.76	0	0	0	0	0	0
4.38	-21.26	-22.22	-31.29	0	0	0	0	0	0
4.409	-21.21	-22.27	-31.44	0	0	0	0	0	0
4.424	-23.33	-22.11	-31.6	0	0	0	0	0	0
4.46	-23.01	-21.78	-31.6	0	0	0	0	0	0
4.461	-22.3	-21.08	-31.6	0	0	0	0	0	0
4.471	-22.9	-21.08	-31.4	0	0	0	0	0	0
4.486	-23.33	-21.08	-31.27	0	0	0	0	0	0
4.498	-23.48	-22.4	-30.84	0	0	0	0	0	0
4.513	-23.5	-22.62	-30.76	0	0	0	0	0	0
4.541	-22.81	-21.59	-30.76	0	0	0	0	0	0
4.558	-22.86	-21.55	-30.72	0	0	0	0	0	0
4.588	-22.99	-21.42	-30.6	0	0	0	0	0	0
4.589	-22.72	-21.33	-30.68	0	0	0	0	0	0
4.62	-22.47	-21.25	-30.76	0	0	0	0	0	0
4.62	-22.47	-21.52	-31.29	0	0	0	0	0	0
4.63	-22.47	-21.59	-31.43	0	0	0	0	0	0
4.66	-21.79	-23.3	-30.09	0	0	0	0	0	0
4.675	-21.62	-23.47	-30.06	0	0	0	0	0	0
4.702	-20.93	-24.16	-29.93	0	0	0	0	0	0
4.708	-21.41	-25.43	-28.68	0	0	0	0	0	0
4.724	-21.96	-26.9	-27.24	0	0	0	0	0	0
4.735	-20.71	-28.9	-25.52	0	0	0	0	0	0
4.749	-20.25	-29.64	-24.9	0	0	0	0	0	0
4.764	-20.25	-33.4	-23.56	0	0	0	0	0	0
4.793	-20.18	-33.61	-23.49	0	0	0	0	0	0
4.81	-19.74	-34.94	-23.05	0	0	0	0	0	0
4.838	-18.84	-35.56	-22.31	0	0	0	0	0	0
4.839	-17.51	-36.48	-21.21	0	0	0	0	0	0
4.856	-14.74	-37.86	-19.4	0	0	0	0	0	0
4.867	-13.4	-38.53	-18.53	0	0	0	0	0	0
4.883	-12.32	-39.62	-18.07	0	0	0	0	0	0
4.911	-12.01	-40.05	-17.95	0	0	0	0	0	0
4.927	-9.47	-44.18	-17.02	0	0	0	0	0	0
4.942	-8.99	-44.66	-16.34	0	0	0	0	0	0
4.967	-7.93	-45.72	-14.84	0	0	0	0	0	0
4.972	-7.83	-47.21	-13.97	0	0	0	0	0	0
4.99	-7.76	-48.28	-13.33	0	0	0	0	0	0
5.001	-7.04	-49.29	-13.19	0	0	0	0	0	0
5.015	-6.9	-49.48	-13.17	0	0	0	0	0	0
5.045	-5.36	-49.65	-11.32	0	0	0	0	0	0
5.06	-5.41	-50.39	-10.52	0	0	0	0	0	0
5.077	-5.53	-52.56	-8.14	0	0	0	0	0	0
5.089	-6.17	-53.74	-8.58	0	0	0	0	0	0
5.116	-6.73	-54.79	-8.98	0	0	0	0	0	0
5.124	-6.06	-54.92	-8.32	0	0	0	0	0	0
5.136	-5.88	-54.96	-8.14	0	0	0	0	0	0
5.164	-7.08	-55.81	-7.3	0	0	0	0	0	0
5.18	-7.27	-55.81	-7.18	0	0	0	0	0	0
5.193	-8.1	-55.81	-6.63	0	0	0	0	0	0
5.208	-9.06	-56.29	-6.63	0	0	0	0	0	0
5.225	-10.15	-56.84	-6.63	0	0	0	0	0	0
5.243	-10.4	-56.84	-7.12	0	0	0	0	0	0
5.252	-10.5	-56.84	-7.3	0	0	0	0	0	0
5.285	-12.37	-57.01	-8.47	0	0	0	0	0	0
5.298	-12.47	-56.79	-8.56	0	0	0	0	0	0
5.312	-13.06	-55.3	-9.14	0	0	0	0	0	0
5.327	-13.75	-55.71	-9.81	0	0	0	0	0	0
5.343	-14.77	-56.33	-10.82	0	0	0	0	0	0
5.361	-14.66	-56.68	-11.17	0	0	0	0	0	0
5.371	-14.6	-56.84	-11.32	0	0	0	0	0	0
5.385	-16.06	-57.65	-12.43	0	0	0	0	0	0
5.416	-16.18	-57.46	-12.63	0	0	0	0	0	0
5.438	-16.49	-55.3	-13.84	0	0	0	0	0	0
5.446	-16.73	-55.3	-14.31	0	0	0	0	0	0
5.462	-17.17	-55.3	-15.18	0	0	0	0	0	0
5.478	-17.48	-53.75	-14.27	0	0	0	0	0	0
5.489	-17.68	-52.73	-13.67	0	0	0	0	0	0
5.504	-16.63	-54.39	-15.59	0	0	0	0	0	0
5.535	-16.51	-54.62	-15.84	0	0	0	0	0	0
5.557	-18.71	-54.79	-15.35	0	0	0	0	0	0
5.563	-18.76	-54.01	-15.29	0	0	0	0	0	0
5.584	-18.88	-52.22	-15.18	0	0	0	0	0	0
5.598	-19.07	-52.41	-15.18	0	0	0	0	0	0
5.611	-19.22	-52.56	-15.18	0	0	0	0	0	0
5.623	-19.5	-51.73	-14.09	0	0	0	0	0	0
5.637	-19.56	-51.54	-13.84	0	0	0	0	0	0
5.671	-20.91	-50.19	-9.88	0	0	0	0	0	0
5.686	-20.6	-49.69	-9.35	0	0	0	0	0	0
5.697	-19.39	-47.94	-7.64	0	0	0	0	0	0
5.712	-19.82	-46.17	-6.73	0	0	0	0	0	0
5.729	-20.25	-44.35	-5.79	0	0	0	0	0	0
5.741	-18.49	-42.59	-1.95	0	0	0	0	0	0
5.757	-18.03	-42.12	-0.93	0	0	0	0	0	0
5.786	-17.51	-39.9	-1.1	0	0	0	0	0	0
5.822	-17.48	-39.87	-0.75	0	0	0	0	0	0
5.823	-17.34	-39.73	1.08	0	0	0	0	0	0
5.83	-17.2	-39.01	2.06	0	0	0	0	0	0
5.846	-17	-38.02	3.42	0	0	0	0	0	0
5.859	-16.01	-37.03	4.39	0	0	0	0	0	0
5.874	-15.63	-36.65	4.76	0	0	0	0	0	0
5.889	-16.62	-35.99	6.06	0	0	0	0	0	0
5.925	-16.55	-35.86	6.3	0	0	0	0	0	0
5.938	-15.8	-35.11	7.61	0	0	0	0	0	0
5.948	-16.12	-34.92	8.8	0	0	0	0	0	0
5.963	-16.66	-34.6	10.8	0	0	0	0	0	0
5.98	-16.98	-35.14	10.27	0	0	0	0	0	0
5.992	-17.17	-35.45	9.96	0	0	0	0	0	0
6.007	-16.21	-35.45	9.96	0	0	0	0	0	0
6.036	-16.18	-35.38	9.98	0	0	0	0	0	0
6.051	-17	-33.57	10.46	0	0	0	0	0	0
6.083	-16.73	-33.52	10.83	0	0	0	0	0	0
6.085	-16.14	-33.4	11.63	0	0	0	0	0	0
6.104	-17.56	-32.79	12.23	0	0	0	0	0	0
6.111	-18.54	-32.37	12.64	0	0	0	0	0	0
6.127	-17.67	-31.79	14.34	0	0	0	0	0	0
6.141	-17.51	-31.69	14.65	0	0	0	0	0	0
6.17	-20.08	-31.52	13.48	0	0	0	0	0	0
6.187	-19.75	-31.76	14.12	0	0	0	0	0	0
6.212	-18.71	-32.54	16.16	0	0	0	0	0	0
6.223	-19.41	-32.02	15.65	0	0	0	0	0	0
6.255	-20.08	-31.52	15.15	0	0	0	0	0	0
6.256	-19.68	-31.92	15.28	0	0	0	0	0	0
6.259	-19.56	-32.03	15.32	0	0	0	0	0	0
6.288	-20.08	-30.83	15.15	0	0	0	0	0	0
6.303	-20.01	-30.71	14.97	0	0	0	0	0	0
6.317	-19.74	-30.15	14.15	0	0	0	0	0	0
6.332	-19.89	-30.61	15.21	0	0	0	0	0	0
6.354	-20.08	-31.18	16.49	0	0	0	0	0	0
6.362	-19.46	-30.06	16.86	0	0	0	0	0	0
6.376	-19.22	-29.64	17	0	0	0	0	0	0
6.391	-18.88	-32.03	15.32	0	0	0	0	0	0
6.409	-18.88	-32.03	15.32	0	0	0	0	0	0
6.435	-20.25	-31.35	16.66	0	0	0	0	0	0
6.458	-19.28	-31.76	16.12	0	0	0	0	0	0
6.48	-17.85	-32.37	15.32	0	0	0	0	0	0
6.482	-17.52	-32.71	14.34	0	0	0	0	0	0
6.497	-17.34	-32.89	13.81	0	0	0	0	0	0
6.51	-17.84	-33.05	13.98	0	0	0	0	0	0
6.541	-17.85	-33.15	13.95	0	0	0	0	0	0
6.556	-17.68	-34.6	13.48	0	0	0	0	0	0
6.57	-17.2	-34.72	12.65	0	0	0	0	0	0
6.604	-16.31	-34.94	11.13	0	0	0	0	0	0
6.605	-15.6	-36.06	10.83	0	0	0	0	0	0
6.614	-15.12	-36.82	10.63	0	0	0	0	0	0
6.631	-14.07	-36.67	9.03	0	0	0	0	0	0
6.644	-13.92	-36.65	8.79	0	0	0	0	0	0
6.664	-12.41	-38.16	7.63	0	0	0	0	0	0
6.688	-12.52	-38.24	7.12	0	0	0	0	0	0
6.703	-12.89	-38.36	5.77	0	0	0	0	0	0
6.73	-12.61	-39.2	4.22	0	0	0	0	0	0
6.762	-12.38	-39.9	2.92	0	0	0	0	0	0
6.763	-13.77	-41.29	2.38	0	0	0	0	0	0
6.764	-14.09	-41.61	2.25	0	0	0	0	0	0
6.791	-13.4	-40.24	0.57	0	0	0	0	0	0
6.805	-13.63	-40.77	-0.08	0	0	0	0	0	0
6.821	-14.43	-42.64	-2.44	0	0	0	0	0	0
6.837	-14.19	-43.38	-3.64	0	0	0	0	0	0
6.85	-13.92	-44.18	-4.96	0	0	0	0	0	0
6.866	-12.64	-45.97	-6.46	0	0	0	0	0	0
6.88	-12.21	-46.57	-6.97	0	0	0	0	0	0
6.908	-14.43	-48.11	-8.47	0	0	0	0	0	0
6.924	-14.25	-48.78	-8.77	0	0	0	0	0	0
6.939	-13.4	-51.88	-10.15	0	0	0	0	0	0
6.954	-13.98	-52.31	-11.14	0	0	0	0	0	0
6.979	-14.77	-52.9	-12.5	0	0	0	0	0	0
6.983	-14.31	-53.14	-13.88	0	0	0	0	0	0
6.998	-14.09	-53.25	-14.51	0	0	0	0	0	0
7.013	-14.94	-53.76	-15.34	0	0	0	0	0	0
7.043	-14.93	-53.81	-15.39	0	0	0	0	0	0
7.058	-14.77	-54.27	-15.85	0	0	0	0	0	0
7.074	-15.02	-54.65	-16.09	0	0	0	0	0	0
7.09	-15.46	-55.3	-16.52	0	0	0	0	0	0
7.111	-15.78	-55.84	-17.47	0	0	0	0	0	0
7.116	-15.97	-56.16	-18.03	0	0	0	0	0	0
7.174	-15.67	-57.99	-19.22	0	0	0	0	0	0
7.176	-15.64	-58.19	-19.4	0	0	0	0	0	0
7.178	-15.8	-57.7	-20.54	0	0	0	0	0	0
7.194	-16.16	-57.64	-20.29	0	0	0	0	0	0
7.21	-17	-57.52	-19.7	0	0	0	0	0	0
7.223	-16.8	-57.92	-19.32	0	0	0	0	0	0
7.236	-16.66	-58.21	-19.03	0	0	0	0	0	0
7.25	-16.37	-57.64	-18.47	0	0	0	0	0	0
7.28	-16.32	-57.53	-18.37	0	0	0	0	0	0
7.295	-17.17	-58.04	-19.87	0	0	0	0	0	0
7.309	-17.25	-57.95	-19.71	0	0	0	0	0	0
7.324	-17.51	-57.7	-19.2	0	0	0	0	0	0
7.34	-17.6	-57.43	-19.11	0	0	0	0	0	0
7.354	-17.68	-57.18	-19.03	0	0	0	0	0	0
7.368	-16.72	-57.87	-18.9	0	0	0	0	0	0
7.389	-16.49	-58.04	-18.86	0	0	0	0	0	0
7.417	-16.31	-57.52	-17.69	0	0	0	0	0	0
7.417	-16.31	-57.52	-17.69	0	0	0	0	0	0
7.442	-16.83	-57.7	-15.85	0	0	0	0	0	0
7.458	-15.56	-57.06	-14.6	0	0	0	0	0	0
7.472	-14.09	-56.33	-13.17	0	0	0	0	0	0
7.488	-13.34	-54.09	-13.41	0	0	0	0	0	0
7.502	-13.06	-53.25	-13.5	0	0	0	0	0	0
7.549	-11.87	-54.79	-11.66	0	0	0	0	0	0
7.552	-11.66	-54.54	-11.5	0	0	0	0	0	0
7.567	-10.15	-52.73	-10.32	0	0	0	0	0	0
7.577	-9.82	-53.47	-9.72	0	0	0	0	0	0
7.594	-9.3	-54.62	-8.81	0	0	0	0	0	0
7.605	-6.94	-52.25	-8.26	0	0	0	0	0	0
7.62	-5.71	-51.02	-7.97	0	0	0	0	0	0
7.635	-5.39	-53.24	-8.59	0	0	0	0	0	0
7.664	-5.24	-53.29	-8.67	0	0	0	0	0	0
7.68	-3.14	-51.19	-9.14	0	0	0	0	0	0
7.696	-3.25	-51.19	-9.04	0	0	0	0	0	0
7.711	-3.48	-51.19	-8.81	0	0	0	0	0	0
7.736	-3.28	-51.4	-10.6	0	0	0	0	0	0
7.741	-3.14	-51.54	-11.83	0	0	0	0	0	0
7.756	-3.29	-49.9	-13.42	0	0	0	0	0	0
7.799	-3.33	-49.62	-13.73	0	0	0	0	0	0
7.801	-3.82	-48.46	-15.85	0	0	0	0	0	0
7.817	-4.25	-48.13	-16.54	0	0	0	0	0	0
7.835	-5.36	-47.26	-18.36	0	0	0	0	0	0
7.846	-5.36	-45.61	-19.08	0	0	0	0	0	0
7.856	-5.36	-44.18	-19.7	0	0	0	0	0	0
7.87	-8.49	-43.33	-20.54	0	0	0	0	0	0
7.89	-9.13	-43.15	-20.71	0	0	0	0	0	0
7.915	-8.44	-39.73	-22.72	0	0	0	0	0	0
7.93	-9.19	-38.98	-22.91	0	0	0	0	0	0
7.946	-11.69	-36.48	-23.56	0	0	0	0	0	0
7.962	-13.17	-36.32	-24.36	0	0	0	0	0	0
7.974	-14.77	-36.14	-25.23	0	0	0	0	0	0
7.99	-14.65	-33.95	-26.62	0	0	0	0	0	0
8.004	-14.6	-33.23	-27.08	0	0	0	0	0	0
8.034	-16.49	-31.35	-29.93	0	0	0	0	0	0
8.049	-16.49	-30.75	-30.12	0	0	0	0	0	0
8.064	-16.49	-27.24	-31.27	0	0	0	0	0	0
8.081	-17.84	-26.03	-31.61	0	0	0	0	0	0
8.093	-19.74	-24.33	-32.1	0	0	0	0	0	0
8.108	-19.03	-24.1	-33.49	0	0	0	0	0	0
8.124	-18.71	-23.99	-34.11	0	0	0	0	0	0
8.144	-20.17	-21.88	-33	0	0	0	0	0	0
8.192	-20.23	-21.75	-32.87	0	0	0	0	0	0
8.193	-20.08	-21.59	-32.1	0	0	0	0	0	0
8.222	-19.9	-21.53	-32.4	0	0	0	0	0	0
8.223	-19.56	-21.42	-32.94	0	0	0	0	0	0
8.229	-19.67	-20.67	-33.26	0	0	0	0	0	0
8.243	-19.74	-20.23	-33.44	0	0	0	0	0	0
8.257	-20.35	-19.92	-32.55	0	0	0	0	0	0
8.293	-20.36	-19.98	-32.5	0	0	0	0	0	0
8.314	-19.39	-21.59	-33.44	0	0	0	0	0	0
8.316	-19.7	-21.59	-33.74	0	0	0	0	0	0
8.337	-20.42	-21.59	-34.45	0	0	0	0	0	0
8.345	-20.32	-21.69	-33.79	0	0	0	0	0	0
8.361	-20.25	-21.77	-33.28	0	0	0	0	0	0
8.374	-19.81	-20.74	-33.99	0	0	0	0	0	0
8.412	-19.74	-20.57	-34.11	0	0	0	0	0	0
8.422	-19.39	-21.59	-34.45	0	0	0	0	0	0
8.449	-19.52	-21.39	-34.49	0	0	0	0	0	0
8.45	-19.91	-20.74	-34.62	0	0	0	0	0	0
8.464	-19.37	-21.27	-34.62	0	0	0	0	0	0
8.479	-18.88	-21.77	-34.62	0	0	0	0	0	0
8.493	-17.54	-20.16	-34.09	0	0	0	0	0	0
8.507	-17.17	-19.71	-33.95	0	0	0	0	0	0
8.537	-17.85	-21.42	-34.95	0	0	0	0	0	0
8.552	-17.74	-21.37	-35.07	0	0	0	0	0	0
8.567	-17.17	-21.08	-35.62	0	0	0	0	0	0
8.583	-17.17	-21.23	-35.62	0	0	0	0	0	0
8.596	-17.17	-21.42	-35.62	0	0	0	0	0	0
8.612	-16.93	-20.94	-35.62	0	0	0	0	0	0
8.626	-16.83	-20.74	-35.62	0	0	0	0	0	0
8.641	-17.5	-21.08	-35.62	0	0	0	0	0	0
8.67	-17.47	-21.12	-35.78	0	0	0	0	0	0
8.686	-17.17	-21.42	-36.96	0	0	0	0	0	0
8.716	-17.11	-21.49	-36.26	0	0	0	0	0	0
8.717	-17	-21.59	-35.12	0	0	0	0	0	0
8.745	-16.49	-21.7	-36.2	0	0	0	0	0	0
8.748	-16.14	-21.77	-36.96	0	0	0	0	0	0
8.76	-17.1	-21.13	-35.72	0	0	0	0	0	0
8.776	-17.17	-21.08	-35.62	0	0	0	0	0	0
8.803	-16.49	-21.08	-36.29	0	0	0	0	0	0
8.824	-16.94	-21.31	-36.07	0	0	0	0	0	0
8.837	-17.85	-21.77	-35.62	0	0	0	0	0	0
8.848	-17.15	-21.67	-36.12	0	0	0	0	0	0
8.864	-16.66	-21.59	-36.46	0	0	0	0	0	0
8.883	-15.75	-21.29	-34.38	0	0	0	0	0	0
8.893	-15.63	-21.25	-34.11	0	0	0	0	0	0
8.921	-18.37	-21.59	-35.46	0	0	0	0	0	0
8.937	-18.12	-21.45	-35.41	0	0	0	0	0	0
8.954	-17.51	-21.08	-35.29	0	0	0	0	0	0
8.966	-17.15	-21.82	-34.57	0	0	0	0	0	0
8.981	-16.83	-22.45	-33.95	0	0	0	0	0	0
9	-17.24	-23.14	-34.08	0	0	0	0	0	0
9.013	-17.34	-23.3	-34.11	0	0	0	0	0	0
9.04	-15.8	-24.5	-34.62	0	0	0	0	0	0
9.058	-15.9	-24.33	-34.65	0	0	0	0	0	0
9.072	-16.31	-23.65	-34.79	0	0	0	0	0	0
9.085	-15.5	-25.11	-33.36	0	0	0	0	0	0
9.1	-14.6	-26.73	-31.77	0	0	0	0	0	0
9.137	-14.1	-28.98	-32.01	0	0	0	0	0	0
9.145	-13.92	-29.81	-32.1	0	0	0	0	0	0
9.161	-10.84	-31.86	-32.44	0	0	0	0	0	0
9.173	-10.42	-32.08	-32.32	0	0	0	0	0	0
9.188	-7.93	-33.4	-31.6	0	0	0	0	0	0
9.205	-6.81	-34.66	-30.78	0	0	0	0	0	0
9.217	-5.19	-36.48	-29.59	0	0	0	0	0	0
9.233	-4.84	-37.3	-28.79	0	0	0	0	0	0
9.254	-4.68	-37.68	-28.42	0	0	0	0	0	0
9.262	-3.55	-39.78	-25.72	0	0	0	0	0	0
9.292	-3.59	-40.13	-25.38	0	0	0	0	0	0
9.307	-4.51	-41.95	-23.89	0	0	0	0	0	0
9.326	-4.93	-42.38	-23.83	0	0	0	0	0	0
9.336	-5.71	-43.15	-23.72	0	0	0	0	0	0
9.351	-5.5	-43.57	-22.07	0	0	0	0	0	0
9.366	-5.36	-43.84	-21.04	0	0	0	0	0	0
9.38	-6.31	-45.41	-19.51	0	0	0	0	0	0
9.41	-6.42	-45.57	-19.34	0	0	0	0	0	0
9.425	-7.76	-46.57	-18.36	0	0	0	0	0	0
9.44	-7.81	-46.93	-17.71	0	0	0	0	0	0
9.456	-7.93	-47.77	-16.18	0	0	0	0	0	0
9.47	-8.23	-48.46	-16.86	0	0	0	0	0	0
9.486	-8.44	-48.97	-17.36	0	0	0	0	0	0
9.5	-8.73	-47.83	-15.68	0	0	0	0	0	0
9.514	-8.79	-47.6	-15.35	0	0	0	0	0	0
9.549	-9.81	-49.65	-16.69	0	0	0	0	0	0
9.561	-10.05	-49.73	-16.61	0	0	0	0	0	0
9.576	-10.84	-50	-16.35	0	0	0	0	0	0
9.589	-10.93	-49.91	-15.27	0	0	0	0	0	0
9.604	-11.01	-49.82	-14.17	0	0	0	0	0	0
9.618	-11.93	-51.01	-15.85	0	0	0	0	0	0
9.632	-12.21	-51.36	-16.35	0	0	0	0	0	0
9.671	-12.55	-50.34	-16.02	0	0	0	0	0	0
9.697	-13.15	-50.64	-15.84	0	0	0	0	0	0
9.699	-15.97	-52.05	-15.01	0	0	0	0	0	0
9.717	-15.82	-51.6	-15.45	0	0	0	0	0	0
9.722	-15.63	-51.02	-16.02	0	0	0	0	0	0
9.737	-17.09	-51.51	-16.25	0	0	0	0	0	0
9.751	-17.68	-51.71	-16.35	0	0	0	0	0	0
9.767	-19.55	-52.22	-18.84	0	0	0	0	0	0
9.784	-19.56	-52.22	-18.86	0	0	0	0	0	0
9.82	-22.47	-51.02	-22.38	0	0	0	0	0	0
9.838	-23.02	-51.02	-23.72	0	0	0	0	0	0
9.84	-23.84	-51.02	-25.74	0	0	0	0	0	0
9.855	-24.18	-50.46	-27.82	0	0	0	0	0	0
9.869	-24.35	-50.17	-28.92	0	0	0	0	0	0
9.883	-24.69	-47.86	-33.12	0	0	0	0	0	0
9.913	-24.66	-47.73	-33.39	0	0	0	0	0	0
9.928	-24.01	-47.09	-35.29	0	0	0	0	0	0
9.95	-23.4	-47.46	-34.08	0	0	0	0	0	0
9.964	-22.3	-48.11	-31.94	0	0	0	0	0	0
9.972	-22.51	-46.69	-31.94	0	0	0	0	0	0
9.987	-22.64	-45.72	-31.94	0	0	0	0	0	0
10.002	-22.64	-45.42	-31.36	0	0	0	0	0	0
10.017	-22.64	-45.38	-31.27	0	0	0	0	0	0
10.035	-23.49	-43.86	-28.13	0	0	0	0	0	0
10.072	-22.83	-43.52	-27.07	0	0	0	0	0	0
10.098	-20.93	-42.64	-24.23	0	0	0	0	0	0
10.099	-20.66	-41.82	-21.8	0	0	0	0	0	0
10.108	-20.42	-41.1	-19.7	0	0	0	0	0	0
10.121	-21.1	-40.14	-16.89	0	0	0	0	0	0
10.136	-21.28	-39.9	-16.18	0	0	0	0	0	0
10.165	-18.88	-38.19	-10.82	0	0	0	0	0	0
10.181	-18.81	-38.26	-10.33	0	0	0	0	0	0
10.198	-18.54	-38.53	-8.47	0	0	0	0	0	0
10.21	-18.46	-36.95	-6.76	0	0	0	0	0	0
10.225	-18.37	-35.28	-4.96	0	0	0	0	0	0
10.254	-18.62	-35.79	-2.96	0	0	0	0	0	0
10.257	-18.71	-35.97	-2.28	0	0	0	0	0	0
10.284	-17.68	-36.65	-0.26	0	0	0	0	0	0
10.3	-17.8	-36.48	0.02	0	0	0	0	0	0
10.319	-18.37	-35.62	1.41	0	0	0	0	0	0
10.337	-18.44	-34.85	1.76	0	0	0	0	0	0
10.344	-18.54	-33.74	2.25	0	0	0	0	0	0
10.371	-19.23	-33.51	4.75	0	0	0	0	0	0
10.38	-19.56	-33.4	5.94	0	0	0	0	0	0
10.395	-21.6	-32.72	6.6	0	0	0	0	0	0
10.417	-21.59	-32.8	6.72	0	0	0	0	0	0
10.433	-21.28	-33.74	7.95	0	0	0	0	0	0
10.45	-21.09	-32.92	8.63	0	0	0	0	0	0
10.462	-20.76	-31.52	9.79	0	0	0	0	0	0
10.476	-22.08	-31.52	9.36	0	0	0	0	0	0
10.503	-22.81	-31.52	9.12	0	0	0	0	0	0
10.506	-22.21	-31.82	10.01	0	0	0	0	0	0
10.535	-22.14	-31.84	10.14	0	0	0	0	0	0
10.552	-22.47	-30.83	10.8	0	0	0	0	0	0
10.567	-22.52	-30.98	11.04	0	0	0	0	0	0
10.579	-22.64	-31.35	11.63	0	0	0	0	0	0
10.597	-23.03	-32.12	12.2	0	0	0	0	0	0
10.629	-23.33	-32.71	12.64	0	0	0	0	0	0
10.63	-24.18	-31.02	10.42	0	0	0	0	0	0
10.647	-24.35	-30.66	9.96	0	0	0	0	0	0
10.669	-23.84	-31.18	12.14	0	0	0	0	0	0
10.69	-23.72	-31.38	12.1	0	0	0	0	0	0
10.698	-23.33	-32.03	11.97	0	0	0	0	0	0
10.714	-23.41	-31.95	11.22	0	0	0	0	0	0
10.763	-23.5	-31.86	10.46	0	0	0	0	0	0
10.763	-21.87	-30.5	11.8	0	0	0	0	0	0
10.764	-21.45	-30.15	12.14	0	0	0	0	0	0
10.791	-22.99	-30.32	12.97	0	0	0	0	0	0
10.792	-22.99	-30.32	12.97	0	0	0	0	0	0
10.816	-22.13	-30.83	11.47	0	0	0	0	0	0
10.83	-22.83	-31.38	11.85	0	0	0	0	0	0
10.845	-23.67	-32.03	12.3	0	0	0	0	0	0
10.862	-22.8	-32.16	10.73	0	0	0	0	0	0
10.875	-22.47	-32.2	10.13	0	0	0	0	0	0
10.905	-22.81	-32.89	11.8	0	0	0	0	0	0
10.92	-22.7	-32.77	11.45	0	0	0	0	0	0
10.934	-21.79	-31.86	8.79	0	0	0	0	0	0
10.949	-21.05	-32.46	8.59	0	0	0	0	0	0
10.965	-19.91	-33.4	8.28	0	0	0	0	0	0
10.979	-19.8	-33.74	7.3	0	0	0	0	0	0
10.993	-19.74	-33.91	6.77	0	0	0	0	0	0
11.015	-19.89	-33.76	5.07	0	0	0	0	0	0
11.037	-19.79	-33.82	4.98	0	0	0	0	0	0
11.055	-18.03	-34.94	5.77	0	0	0	0	0	0
11.068	-17.64	-35.55	4.75	0	0	0	0	0	0
11.084	-16.83	-36.82	2.58	0	0	0	0	0	0
11.097	-16.62	-36.82	1.59	0	0	0	0	0	0
11.113	-16.49	-36.82	0.91	0	0	0	0	0	0
11.162	-15.74	-38.45	-0.98	0	0	0	0	0	0
11.163	-15.61	-38.71	-1.34	0	0	0	0	0	0
11.18	-14.77	-38.87	-3.78	0	0	0	0	0	0
11.191	-14.17	-39.2	-4.65	0	0	0	0	0	0
11.21	-12.55	-40.07	-6.97	0	0	0	0	0	0
11.216	-12.92	-40.8	-7.86	0	0	0	0	0	0
11.23	-13.23	-41.44	-8.64	0	0	0	0	0	0
11.246	-14.09	-42.01	-8.92	0	0	0	0	0	0
11.271	-14.26	-42.12	-8.98	0	0	0	0	0	0
11.29	-13.06	-44.69	-11.49	0	0	0	0	0	0
11.307	-13.29	-44.92	-12.08	0	0	0	0	0	0
11.324	-14.09	-45.72	-14.17	0	0	0	0	0	0
11.334	-14.42	-46.54	-15.61	0	0	0	0	0	0
11.349	-14.77	-47.43	-17.19	0	0	0	0	0	0
11.364	-13.25	-48.95	-18.18	0	0	0	0	0	0
11.388	-12.72	-49.48	-18.53	0	0	0	0	0	0
11.408	-10.67	-51.54	-18.86	0	0	0	0	0	0
11.425	-10.64	-51.66	-18.94	0	0	0	0	0	0
11.443	-10.5	-52.39	-19.37	0	0	0	0	0	0
11.454	-10.57	-53.04	-19.86	0	0	0	0	0	0
11.469	-10.67	-53.93	-20.54	0	0	0	0	0	0
11.491	-10.31	-53.81	-20.89	0	0	0	0	0	0
11.496	-10.15	-53.76	-21.04	0	0	0	0	0	0
11.513	-10.32	-55.55	-21.2	0	0	0	0	0	0
11.541	-10.37	-55.69	-21.29	0	0	0	0	0	0
11.558	-10.84	-56.16	-22.05	0	0	0	0	0	0
11.572	-10.9	-56.1	-22.46	0	0	0	0	0	0
11.586	-11.01	-55.98	-23.22	0	0	0	0	0	0
11.601	-10.46	-56.32	-23.33	0	0	0	0	0	0
11.634	-10.15	-56.5	-23.39	0	0	0	0	0	0
11.636	-12.45	-56.65	-23.54	0	0	0	0	0	0
11.661	-12.73	-56.6	-23.51	0	0	0	0	0	0
11.676	-12.89	-55.47	-22.72	0	0	0	0	0	0
11.695	-12.59	-55.47	-22.82	0	0	0	0	0	0
11.705	-11.87	-55.47	-23.05	0	0	0	0	0	0
11.721	-12.73	-55.57	-24.09	0	0	0	0	0	0
11.734	-13.4	-55.64	-24.9	0	0	0	0	0	0
11.757	-13.26	-55.79	-25.04	0	0	0	0	0	0
11.774	-13.23	-55.81	-25.07	0	0	0	0	0	0
11.796	-12.72	-56.33	-23.56	0	0	0	0	0	0
11.815	-12.76	-55.86	-23.27	0	0	0	0	0	0
11.822	-12.89	-54.44	-22.38	0	0	0	0	0	0
11.836	-12.89	-54.62	-23.08	0	0	0	0	0	0
11.852	-12.89	-54.79	-23.72	0	0	0	0	0	0
11.866	-13.83	-54.12	-22.8	0	0	0	0	0	0
11.888	-14.09	-53.93	-22.55	0	0	0	0	0	0
11.911	-15.29	-54.44	-20.71	0	0	0	0	0	0
11.927	-15.32	-54.24	-20.62	0	0	0	0	0	0
11.94	-15.46	-53.25	-20.21	0	0	0	0	0	0
11.955	-13.84	-53.48	-18.92	0	0	0	0	0	0
11.97	-11.87	-53.76	-17.36	0	0	0	0	0	0
11.985	-13.82	-52.29	-15.92	0	0	0	0	0	0
12.006	-14.6	-51.71	-15.35	0	0	0	0	0	0
12.015	-13.76	-50.53	-14.85	0	0	0	0	0	0
12.044	-13.83	-50.51	-14.48	0	0	0	0	0	0
12.064	-14.43	-50.51	-11.83	0	0	0	0	0	0
12.076	-13.24	-49.98	-10.79	0	0	0	0	0	0
12.089	-11.35	-49.14	-9.14	0	0	0	0	0	0
12.105	-11.7	-48.56	-9.03	0	0	0	0	0	0
12.142	-11.87	-48.28	-8.98	0	0	0	0	0	0
12.143	-10.75	-49.72	-7.57	0	0	0	0	0	0
12.163	-10.75	-49.63	-7.42	0	0	0	0	0	0
12.184	-11.52	-47.6	-6.97	0	0	0	0	0	0
12.202	-11.35	-47.2	-6.91	0	0	0	0	0	0
12.219	-11.01	-46.4	-6.8	0	0	0	0	0	0
12.222	-11.22	-46.4	-7.2	0	0	0	0	0	0
12.236	-11.35	-46.4	-7.47	0	0	0	0	0	0
12.259	-11.94	-46.7	-7.18	0	0	0	0	0	0
12.281	-12.04	-46.75	-7.14	0	0	0	0	0	0
12.298	-13.23	-44.86	-7.3	0	0	0	0	0	0
12.314	-13.44	-44.86	-8.09	0	0	0	0	0	0
12.326	-13.92	-44.86	-9.98	0	0	0	0	0	0
12.343	-15.04	-43.75	-11.63	0	0	0	0	0	0
12.355	-15.97	-42.81	-13	0	0	0	0	0	0
12.37	-15.01	-42.12	-15.57	0	0	0	0	0	0
12.408	-14.77	-41.95	-16.18	0	0	0	0	0	0
12.411	-16.96	-38.42	-18.32	0	0	0	0	0	0
12.429	-17.25	-37.9	-18.88	0	0	0	0	0	0
12.444	-18.2	-36.14	-20.88	0	0	0	0	0	0
12.46	-19.03	-35.64	-21.36	0	0	0	0	0	0
12.473	-19.91	-35.11	-21.88	0	0	0	0	0	0
12.488	-22.23	-32.01	-22.64	0	0	0	0	0	0
12.522	-22.99	-31	-22.89	0	0	0	0	0	0
12.537	-23.5	-29.12	-23.72	0	0	0	0	0	0
12.55	-23.66	-28.91	-23.83	0	0	0	0	0	0
12.562	-24.53	-27.75	-24.39	0	0	0	0	0	0
12.577	-25.1	-26.61	-25.1	0	0	0	0	0	0
12.592	-25.9	-25.02	-26.07	0	0	0	0	0	0
12.607	-26.27	-23.15	-25.46	0	0	0	0	0	0
12.622	-26.41	-22.45	-25.23	0	0	0	0	0	0
12.657	-29.2	-20.97	-26.04	0	0	0	0	0	0
12.671	-29.28	-20.91	-25.99	0	0	0	0	0	0
12.685	-28.97	-20.91	-25.4	0	0	0	0	0	0
12.696	-29.04	-20.47	-26.07	0	0	0	0	0	0
12.712	-29.15	-19.71	-27.24	0	0	0	0	0	0
12.725	-29.25	-18.96	-27.77	0	0	0	0	0	0
12.764	-29.32	-18.52	-28.08	0	0	0	0	0	0
12.765	-28.86	-18.36	-27.33	0	0	0	0	0	0
12.784	-28.83	-18.39	-27.28	0	0	0	0	0	0
12.8	-29.49	-19.71	-28.25	0	0	0	0	0	0
12.813	-29.17	-19.61	-28.46	0	0	0	0	0	0
12.829	-28.46	-19.37	-28.92	0	0	0	0	0	0
12.843	-27.45	-19.17	-28.52	0	0	0	0	0	0
12.866	-26.75	-19.03	-28.25	0	0	0	0	0	0
12.873	-27.91	-17.3	-29.1	0	0	0	0	0	0
12.887	-28.12	-16.97	-29.25	0	0	0	0	0	0
12.917	-28.97	-18.17	-27.08	0	0	0	0	0	0
12.935	-28.72	-18.34	-27.33	0	0	0	0	0	0
12.946	-27.95	-18.86	-28.08	0	0	0	0	0	0
12.961	-27.77	-18.86	-27.91	0	0	0	0	0	0
12.983	-27.61	-18.86	-27.75	0	0	0	0	0	0
12.991	-28.95	-18.59	-27.48	0	0	0	0	0	0
13.005	-29.32	-18.52	-27.41	0	0	0	0	0	0
13.035	-28.12	-18.69	-28.25	0	0	0	0	0	0
13.052	-27.77	-18.97	-28.28	0	0	0	0	0	0
13.075	-26.24	-20.23	-28.42	0	0	0	0	0	0
13.08	-26.31	-19.73	-28.07	0	0	0	0	0	0
13.095	-26.41	-19.03	-27.58	0	0	0	0	0	0
13.132	-26.66	-18.01	-28.83	0	0	0	0	0	0
13.133	-26.75	-17.66	-29.25	0	0	0	0	0	0
13.145	-26.41	-18.68	-29.92	0	0	0	0	0	0
13.158	-26.41	-18.69	-29.93	0	0	0	0	0	0
13.184	-26.92	-18.17	-28.75	0	0	0	0	0	0
13.198	-27.13	-18.38	-28.68	0	0	0	0	0	0
13.213	-27.44	-18.69	-28.58	0	0	0	0	0	0
13.228	-26.52	-18.91	-29.03	0	0	0	0	0	0
13.263	-26.07	-19.03	-29.25	0	0	0	0	0	0
13.264	-26.4	-19.03	-28.6	0	0	0	0	0	0
13.288	-26.47	-19.02	-28.62	0	0	0	0	0	0
13.302	-27.26	-18.86	-29.09	0	0	0	0	0	0
13.32	-27.02	-19.59	-29.33	0	0	0	0	0	0
13.332	-26.58	-20.91	-29.76	0	0	0	0	0	0
13.347	-26.68	-19.77	-29.25	0	0	0	0	0	0
13.362	-26.75	-19.03	-28.92	0	0	0	0	0	0
13.398	-27.95	-17.83	-29.21	0	0	0	0	0	0
13.413	-28.11	-17.67	-29.25	0	0	0	0	0	0
13.414	-27.45	-19	-28.92	0	0	0	0	0	0
13.436	-26.97	-19.22	-29.01	0	0	0	0	0	0
13.45	-25.72	-19.71	-29.25	0	0	0	0	0	0
13.467	-25.54	-19.52	-30.18	0	0	0	0	0	0
13.479	-25.38	-19.37	-30.93	0	0	0	0	0	0
13.494	-26.09	-19.79	-29.96	0	0	0	0	0	0
13.517	-26.24	-19.88	-29.76	0	0	0	0	0	0
13.538	-25.21	-19.88	-30.43	0	0	0	0	0	0
13.552	-25.21	-19.73	-30.43	0	0	0	0	0	0
13.568	-25.21	-19.2	-30.43	0	0	0	0	0	0
13.583	-24.38	-19.7	-30.26	0	0	0	0	0	0
13.597	-23.5	-20.23	-30.09	0	0	0	0	0	0
13.611	-24.3	-21.3	-30.35	0	0	0	0	0	0
13.627	-24.53	-21.59	-30.43	0	0	0	0	0	0
13.657	-22.47	-21.25	-31.1	0	0	0	0	0	0
13.68	-22.54	-21.63	-30.97	0	0	0	0	0	0
13.688	-22.81	-23.3	-30.43	0	0	0	0	0	0
13.703	-22.37	-24.34	-30.57	0	0	0	0	0	0
13.717	-21.79	-25.7	-30.76	0	0	0	0	0	0
13.735	-21.08	-26.42	-30.53	0	0	0	0	0	0
13.747	-20.76	-26.73	-30.43	0	0	0	0	0	0
13.764	-19.57	-28.61	-30.93	0	0	0	0	0	0
13.82	-19.51	-28.56	-30.85	0	0	0	0	0	0
13.821	-19.05	-28.1	-30.09	0	0	0	0	0	0
13.822	-18.79	-28.49	-29.84	0	0	0	0	0	0
13.835	-18.37	-29.12	-29.42	0	0	0	0	0	0
13.849	-17.93	-30.44	-28.99	0	0	0	0	0	0
13.865	-17.68	-31.18	-28.75	0	0	0	0	0	0
13.88	-15.98	-33.19	-28.9	0	0	0	0	0	0
13.918	-15.76	-33.53	-28.88	0	0	0	0	0	0
13.925	-14.94	-36.31	-28.08	0	0	0	0	0	0
13.939	-14.47	-36.47	-27.93	0	0	0	0	0	0
13.953	-13.4	-36.82	-27.58	0	0	0	0	0	0
13.968	-12.91	-38.72	-27.09	0	0	0	0	0	0
13.983	-12.55	-40.07	-26.74	0	0	0	0	0	0
13.998	-10.38	-40.22	-26.6	0	0	0	0	0	0
14.04	-9.99	-40.3	-26.54	0	0	0	0	0	0
14.05	-10.33	-44.01	-24.56	0	0	0	0	0	0
14.057	-9.67	-44.58	-24.69	0	0	0	0	0	0
14.072	-7.76	-46.23	-25.07	0	0	0	0	0	0
14.086	-6.53	-46.76	-24.03	0	0	0	0	0	0
14.101	-5.36	-47.26	-23.05	0	0	0	0	0	0
14.115	-5.09	-48.94	-23.05	0	0	0	0	0	0
14.132	-5.02	-49.31	-23.05	0	0	0	0	0	0
14.16	-3.65	-51.02	-23.72	0	0	0	0	0	0
14.175	-3.75	-51.33	-23.56	0	0	0	0	0	0
14.19	-4.17	-52.56	-22.89	0	0	0	0	0	0
14.21	-3.76	-53.13	-22.17	0	0	0	0	0	0
14.22	-3.31	-53.76	-21.38	0	0	0	0	0	0
14.235	-3.82	-54.52	-20.63	0	0	0	0	0	0
14.249	-3.99	-54.79	-20.37	0	0	0	0	0	0
14.279	-5.36	-55.81	-19.7	0	0	0	0	0	0
14.296	-5.29	-55.84	-19.82	0	0	0	0	0	0
14.308	-4.85	-55.98	-20.54	0	0	0	0	0	0
14.323	-5.2	-55.78	-20.06	0	0	0	0	0	0
14.343	-5.71	-55.47	-19.37	0	0	0	0	0	0
14.353	-8.01	-54.09	-19.82	0	0	0	0	0	0
14.371	-9.13	-53.42	-20.04	0	0	0	0	0	0
14.383	-7.04	-53.58	-19.56	0	0	0	0	0	0
14.413	-7.11	-53.41	-19.6	0	0	0	0	0	0
14.427	-9.47	-51.36	-20.37	0	0	0	0	0	0
14.443	-9.83	-51.96	-20.49	0	0	0	0	0	0
14.501	-10.5	-53.07	-20.71	0	0	0	0	0	0
14.504	-11.03	-52.97	-21.22	0	0	0	0	0	0
14.508	-11.35	-52.9	-21.55	0	0	0	0	0	0
14.511	-11.35	-50.76	-20.94	0	0	0	0	0	0
14.538	-11.37	-50.53	-21.01	0	0	0	0	0	0
14.548	-11.69	-50.85	-23.56	0	0	0	0	0	0
14.559	-11.75	-50.7	-23.61	0	0	0	0	0	0
14.574	-11.87	-50.34	-23.72	0	0	0	0	0	0
14.59	-11.87	-49.76	-24.1	0	0	0	0	0	0
14.607	-11.87	-49.31	-24.39	0	0	0	0	0	0
14.617	-13.19	-49.75	-25.4	0	0	0	0	0	0
14.634	-13.4	-49.82	-25.57	0	0	0	0	0	0
14.662	-13.23	-47.94	-26.41	0	0	0	0	0	0
14.678	-13.68	-48.03	-26.41	0	0	0	0	0	0
14.695	-14.94	-48.28	-26.41	0	0	0	0	0	0
14.708	-15.73	-47.33	-25.63	0	0	0	0	0	0
14.738	-16.49	-46.4	-24.9	0	0	0	0	0	0
14.739	-17.42	-45.47	-22.14	0	0	0	0	0	0
14.767	-17.68	-45.21	-21.38	0	0	0	0	0	0
14.786	-17.34	-40.76	-19.37	0	0	0	0	0	0
14.796	-17.34	-40.88	-19.13	0	0	0	0	0	0
14.811	-17.34	-41.44	-18.03	0	0	0	0	0	0
14.826	-17.57	-40.13	-16.29	0	0	0	0	0	0
14.84	-17.85	-38.53	-14.17	0	0	0	0	0	0
14.862	-16.99	-36.44	-12.12	0	0	0	0	0	0
14.876	-16.66	-35.62	-11.32	0	0	0	0	0	0
14.885	-16.49	-36.46	-9.84	0	0	0	0	0	0
14.914	-16.38	-36.26	-9.44	0	0	0	0	0	0
14.929	-15.63	-34.6	-6.63	0	0	0	0	0	0
14.944	-15.7	-34.14	-6.05	0	0	0	0	0	0
14.958	-15.8	-33.4	-5.12	0	0	0	0	0	0
14.974	-16.37	-33.29	-4.35	0	0	0	0	0	0
14.988	-16.66	-33.23	-3.95	0	0	0	0	0	0
15.006	-16.02	-31.97	-1.47	0	0	0	0	0	0
15.032	-16.18	-32.1	-1.18	0	0	0	0	0	0
15.048	-18.37	-34.6	-0.26	0	0	0	0	0	0
15.064	-18.48	-34.14	0.62	0	0	0	0	0	0
15.084	-18.71	-33.23	2.42	0	0	0	0	0	0
15.092	-19.24	-32.48	3.36	0	0	0	0	0	0
15.131	-19.56	-32.03	3.93	0	0	0	0	0	0
15.137	-21.1	-31.42	4.23	0	0	0	0	0	0
15.138	-21.28	-31.35	4.26	0	0	0	0	0	0
15.171	-20.76	-32.54	5.1	0	0	0	0	0	0
15.18	-20.76	-32	5.54	0	0	0	0	0	0
15.196	-20.76	-30.49	6.77	0	0	0	0	0	0
15.21	-21.43	-31.16	6.12	0	0	0	0	0	0
15.225	-21.96	-31.69	5.6	0	0	0	0	0	0
15.24	-21.13	-30.58	5.06	0	0	0	0	0	0
15.258	-20.93	-30.32	4.93	0	0	0	0	0	0
15.285	-22.99	-29.64	7.61	0	0	0	0	0	0
15.3	-23.02	-29.82	7.65	0	0	0	0	0	0
15.316	-23.16	-30.49	7.78	0	0	0	0	0	0
15.33	-22.61	-30.73	7.55	0	0	0	0	0	0
15.345	-21.96	-31	7.28	0	0	0	0	0	0
15.362	-21.58	-29.34	7.15	0	0	0	0	0	0
15.376	-21.45	-28.78	7.11	0	0	0	0	0	0
15.432	-23.67	-29.64	7.95	0	0	0	0	0	0
15.433	-23.54	-29.61	7.92	0	0	0	0	0	0
15.434	-22.81	-29.46	7.78	0	0	0	0	0	0
15.447	-22.38	-29.75	8.35	0	0	0	0	0	0
15.462	-21.79	-30.15	9.12	0	0	0	0	0	0
15.478	-22.9	-30.03	7.55	0	0	0	0	0	0
15.494	-23.33	-29.98	6.94	0	0	0	0	0	0
15.507	-23.33	-29.31	9.23	0	0	0	0	0	0
15.555	-23.22	-29.44	9.06	0	0	0	0	0	0
15.557	-22.47	-30.49	7.44	0	0	0	0	0	0
15.567	-22.09	-30.62	7.32	0	0	0	0	0	0
15.582	-21.45	-30.83	7.11	0	0	0	0	0	0
15.596	-21.45	-31.48	7.96	0	0	0	0	0	0
15.61	-21.45	-31.86	8.45	0	0	0	0	0	0
15.625	-21.28	-32.02	7.34	0	0	0	0	0	0
15.679	-21.26	-32.08	7.25	0	0	0	0	0	0
15.68	-20.76	-33.23	6.44	0	0	0	0	0	0
15.684	-20.88	-33.34	5.56	0	0	0	0	0	0
15.7	-21.1	-33.57	3.76	0	0	0	0	0	0
15.714	-19.93	-34.36	3.76	0	0	0	0	0	0
15.728	-19.05	-34.94	3.76	0	0	0	0	0	0
15.747	-18.62	-34.51	1.07	0	0	0	0	0	0
15.759	-18.54	-34.43	0.57	0	0	0	0	0	0
15.777	-16.18	-35.1	-1.73	0	0	0	0	0	0
15.802	-16.18	-35.32	-2.3	0	0	0	0	0	0
15.82	-16.31	-35.97	-3.95	0	0	0	0	0	0
15.831	-15.85	-36.61	-5.67	0	0	0	0	0	0
15.846	-15.46	-37.16	-7.14	0	0	0	0	0	0
15.861	-14.78	-36.21	-8.87	0	0	0	0	0	0
15.875	-14.6	-35.97	-9.31	0	0	0	0	0	0
15.905	-14.6	-37.34	-11.32	0	0	0	0	0	0
15.92	-14.37	-37.64	-11.82	0	0	0	0	0	0
15.935	-13.4	-38.87	-13.84	0	0	0	0	0	0
15.951	-14.91	-38.48	-13.91	0	0	0	0	0	0
15.97	-16.66	-38.02	-14	0	0	0	0	0	0
15.981	-15.41	-39.77	-14.98	0	0	0	0	0	0
15.995	-14.94	-40.41	-15.35	0	0	0	0	0	0
16.014	-14.94	-43.48	-20.01	0	0	0	0	0	0
16.039	-14.89	-43.6	-20.35	0	0	0	0	0	0
16.055	-14.6	-44.18	-22.05	0	0	0	0	0	0
16.069	-13.77	-45.01	-23.13	0	0	0	0	0	0
16.107	-12.55	-46.23	-24.73	0	0	0	0	0	0
16.108	-12.21	-47.26	-25.74	0	0	0	0	0	0
16.119	-12.04	-47.77	-26.24	0	0	0	0	0	0
16.127	-12.2	-49.95	-27.06	0	0	0	0	0	0
16.157	-12.14	-50	-26.96	0	0	0	0	0	0
16.172	-11.18	-50	-25.4	0	0	0	0	0	0
16.187	-11	-50.29	-25.69	0	0	0	0	0	0
16.201	-10.67	-50.85	-26.24	0	0	0	0	0	0
16.222	-10.77	-51.8	-28.4	0	0	0	0	0	0
16.232	-10.84	-52.39	-29.76	0	0	0	0	0	0
16.246	-10.69	-52.84	-29.9	0	0	0	0	0	0
16.275	-10.67	-52.92	-29.94	0	0	0	0	0	0
16.291	-10.5	-54.1	-31.1	0	0	0	0	0	0
16.306	-10.83	-53.77	-30.96	0	0	0	0	0	0
16.32	-11.69	-52.9	-30.6	0	0	0	0	0	0
16.335	-11.6	-52.24	-29.76	0	0	0	0	0	0
16.351	-11.52	-51.71	-29.09	0	0	0	0	0	0
16.392	-10.55	-53.52	-31.14	0	0	0	0	0	0
16.394	-10.33	-53.93	-31.6	0	0	0	0	0	0
16.412	-12.04	-53.59	-28.58	0	0	0	0	0	0
16.424	-11.69	-53.37	-28.43	0	0	0	0	0	0
16.439	-10.15	-52.39	-27.75	0	0	0	0	0	0
16.454	-10.66	-52.73	-28.07	0	0	0	0	0	0
16.469	-11.18	-53.07	-28.42	0	0	0	0	0	0
16.483	-10.79	-53.98	-27.53	0	0	0	0	0	0
16.51	-10.67	-54.27	-27.24	0	0	0	0	0	0
16.54	-9.64	-52.9	-25.9	0	0	0	0	0	0
16.543	-9.64	-52.9	-25.9	0	0	0	0	0	0
16.557	-8.79	-52.39	-23.05	0	0	0	0	0	0
16.571	-8.86	-52.32	-22.68	0	0	0	0	0	0
16.586	-8.96	-52.22	-22.22	0	0	0	0	0	0
16.601	-9.32	-50.9	-19.99	0	0	0	0	0	0
16.616	-9.47	-50.34	-19.03	0	0	0	0	0	0
16.664	-9.3	-50.17	-18.86	0	0	0	0	0	0
16.665	-9.21	-50.08	-18.74	0	0	0	0	0	0
16.675	-8.44	-49.31	-17.69	0	0	0	0	0	0
16.691	-8.04	-49.85	-17.43	0	0	0	0	0	0
16.706	-7.42	-50.68	-17.02	0	0	0	0	0	0
16.721	-7.31	-49.26	-16.7	0	0	0	0	0	0
16.739	-7.25	-48.46	-16.52	0	0	0	0	0	0
16.754	-8.96	-47.99	-16.37	0	0	0	0	0	0
16.779	-9.07	-47.9	-16.39	0	0	0	0	0	0
16.818	-7.76	-46.92	-17.36	0	0	0	0	0	0
16.818	-7.76	-46.06	-17.57	0	0	0	0	0	0
16.829	-7.76	-44.18	-18.03	0	0	0	0	0	0
16.837	-9.87	-42.5	-18.85	0	0	0	0	0	0
16.852	-11.18	-41.44	-19.37	0	0	0	0	0	0
16.868	-12.07	-39.67	-21.1	0	0	0	0	0	0
16.897	-12.27	-39.35	-21.44	0	0	0	0	0	0
16.912	-15.46	-37.51	-24.9	0	0	0	0	0	0
16.927	-15.37	-37.06	-25.16	0	0	0	0	0	0
16.945	-15.12	-35.8	-25.9	0	0	0	0	0	0
16.961	-17.18	-35.35	-25.11	0	0	0	0	0	0
16.97	-19.05	-34.94	-24.39	0	0	0	0	0	0
16.986	-21.77	-31.68	-25.72	0	0	0	0	0	0
17.001	-22.47	-30.83	-26.07	0	0	0	0	0	0
17.029	-24.01	-29.29	-24.23	0	0	0	0	0	0
17.047	-24.84	-28.54	-24.01	0	0	0	0	0	0
17.062	-27.78	-25.87	-23.22	0	0	0	0	0	0
17.075	-27.86	-25.15	-23.14	0	0	0	0	0	0
17.09	-27.95	-24.33	-23.05	0	0	0	0	0	0
17.105	-28.32	-23.71	-23.91	0	0	0	0	0	0
17.12	-28.46	-23.48	-24.23	0	0	0	0	0	0
17.149	-29.15	-21.77	-24.23	0	0	0	0	0	0
17.178	-29.08	-21.51	-24.25	0	0	0	0	0	0
17.18	-28.63	-19.88	-24.39	0	0	0	0	0	0
17.194	-29.27	-19.95	-24.05	0	0	0	0	0	0
17.217	-30.17	-20.05	-23.56	0	0	0	0	0	0
17.222	-30.87	-19.82	-24.47	0	0	0	0	0	0
17.237	-31.2	-19.71	-24.9	0	0	0	0	0	0
17.253	-30.24	-20.36	-24.58	0	0	0	0	0	0
17.282	-30.29	-20.2	-24.6	0	0	0	0	0	0
17.297	-31.71	-17.83	-25.07	0	0	0	0	0	0
17.311	-31.83	-18.52	-24.84	0	0	0	0	0	0
17.326	-32.05	-19.88	-24.39	0	0	0	0	0	0
17.341	-30.62	-19.55	-24.93	0	0	0	0	0	0
17.358	-29.83	-19.37	-25.23	0	0	0	0	0	0
17.371	-31.19	-19.22	-24.49	0	0	0	0	0	0
17.4	-31.39	-19.26	-24.37	0	0	0	0	0	0
17.416	-31.88	-20.4	-23.89	0	0	0	0	0	0
17.43	-31.24	-20.15	-24.04	0	0	0	0	0	0
17.444	-29.66	-19.54	-24.39	0	0	0	0	0	0
17.461	-30.42	-20.11	-24.39	0	0	0	0	0	0
17.475	-31.03	-20.57	-24.39	0	0	0	0	0	0
17.49	-30.33	-20.15	-23.43	0	0	0	0	0	0
