Relative Time (to start of segment),aclx 1,aclx 2,acly 1,acly 2,aclz 1,aclz 2,gyrx 1,gyrx 2,gyry 1,gyry 2,gyrz 1,gyrz 2,magr 1,magr 2,magphi 1,magphi 2,magtheta 1,magtheta 2,
0.000000,-0.105806,,0.087275,,0.038915,,0.044303,,0.010667,,-0.098030,,0.000000,,-0.078748,,-0.026458,,
0.050000,-0.103783,,0.086380,,0.045694,,0.024314,,0.017900,,-0.094485,,0.000000,,-0.079309,,-0.015710,,
0.100000,-0.084341,,0.084492,,0.049368,,0.004608,,0.040871,,-0.084176,,0.000000,,-0.079930,,-0.015885,,
0.150000,-0.073738,,0.085617,,0.027670,,-0.023066,,0.061102,,-0.079254,,0.000000,,-0.080524,,-0.014597,,
0.200000,-0.067655,,0.085924,,-0.004742,,-0.052190,,0.075404,,-0.077392,,0.000000,,-0.080241,,-0.013997,,
0.300000,-0.048518,,0.087324,,0.007357,,-0.079865,,0.089407,,-0.076960,,0.000000,,-0.081601,,-0.017342,,
0.350000,-0.053121,,0.082187,,0.001401,,-0.097252,,0.106331,,-0.069411,,0.000000,,-0.079952,,-0.017737,,
0.400000,-0.052505,,0.071634,,-0.010717,,-0.114495,,0.117921,,-0.067083,,0.000000,,-0.080512,,-0.016998,,
0.450000,-0.050704,,0.072224,,0.006371,,-0.141010,,0.138449,,-0.058935,,0.000000,,-0.082018,,-0.017277,,
0.500000,-0.046797,,0.073249,,0.029728,,-0.140316,,0.141491,,-0.057181,,0.000000,,-0.082683,,-0.015865,,
0.550000,-0.037232,,0.071482,,0.045461,,-0.173611,,0.161064,,-0.045533,,0.000000,,-0.081999,,-0.014753,,
0.600000,-0.035021,,0.071417,,0.056671,,-0.159339,,0.149980,,-0.046763,,0.000000,,-0.080751,,-0.016303,,
0.650000,-0.038239,,0.073559,,0.054689,,-0.150138,,0.136125,,-0.052683,,0.000000,,-0.079376,,-0.015296,,
0.700000,-0.043889,,0.074674,,0.053617,,-0.134562,,0.123284,,-0.057272,,0.000000,,-0.078116,,-0.016036,,
0.800000,-0.046601,,0.076659,,0.088916,,-0.121594,,0.110979,,-0.060830,,0.000000,,-0.077701,,-0.014307,,
0.850000,-0.047918,,0.076889,,0.086990,,-0.110945,,0.101385,,-0.064223,,0.000000,,-0.076419,,-0.012812,,
0.900000,-0.049788,,0.078666,,0.097519,,-0.104280,,0.095992,,-0.062294,,0.000000,,-0.077446,,-0.009160,,
0.950000,-0.046423,,0.090742,,0.116753,,-0.098991,,0.093727,,-0.065120,,0.000000,,-0.076222,,-0.008847,,
1.000000,-0.053163,,0.086398,,0.140630,,-0.080481,,0.084983,,-0.073978,,0.000000,,-0.074931,,-0.008152,,
0.000000,,-0.083434,,0.078444,,0.089370,,-0.058276,,0.069236,,-0.081216,,0.000000,,-0.073716,,-0.000745,
0.010638,,-0.087383,,0.076076,,0.067949,,-0.052770,,0.065542,,-0.081416,,0.000000,,-0.073903,,-0.000311,
0.021277,,-0.083938,,0.069402,,0.052491,,-0.048278,,0.061221,,-0.080851,,0.000000,,-0.074556,,0.002993,
0.031915,,-0.076411,,0.060370,,0.047825,,-0.045670,,0.056335,,-0.084542,,0.000000,,-0.074551,,0.002598,
0.042553,,-0.049955,,0.035715,,0.022926,,-0.049799,,0.050460,,-0.082239,,0.000000,,-0.079250,,0.014148,
0.053191,,-0.020762,,0.015193,,-0.033854,,-0.054291,,0.035240,,-0.064356,,0.000000,,-0.084477,,-0.014266,
0.063830,,0.007173,,-0.000218,,-0.047317,,-0.060666,,0.029609,,-0.051486,,0.000000,,-0.089477,,-0.023835,
0.074468,,0.035005,,-0.016859,,-0.049902,,-0.063999,,0.026242,,-0.039181,,0.000000,,-0.094681,,-0.034939,
0.085106,,0.062732,,-0.037630,,-0.073250,,-0.066607,,0.020283,,-0.028639,,0.000000,,-0.093166,,-0.081234,
0.106383,,0.089003,,-0.059616,,-0.096352,,-0.073562,,0.016619,,-0.011944,,0.000000,,-0.089800,,-0.124106,
0.117021,,0.116939,,-0.077366,,-0.107238,,-0.064361,,0.013550,,-0.004096,,0.000000,,-0.094822,,-0.147940,
0.127660,,0.142475,,-0.097023,,-0.126176,,-0.050451,,0.009438,,0.001558,,0.000000,,-0.094934,,-0.184329,
0.138298,,0.162515,,-0.111239,,-0.129969,,-0.032702,,0.004432,,0.005249,,0.000000,,-0.099348,,-0.211996,
0.148936,,0.179717,,-0.115924,,-0.117375,,0.004125,,-0.004355,,0.001411,,0.000000,,-0.105545,,-0.198237,
0.159574,,0.181735,,-0.118062,,-0.103021,,-0.018140,,-0.024975,,0.012565,,0.000000,,-0.079507,,-0.228169,
0.170213,,0.158294,,-0.111353,,-0.090810,,-0.037701,,-0.037310,,0.003353,,0.000000,,-0.056911,,-0.180836,
0.180851,,0.154395,,-0.121181,,-0.089981,,-0.055305,,-0.050807,,-0.003630,,0.000000,,-0.056001,,-0.226354,
0.191489,,0.135444,,-0.122358,,-0.086249,,-0.073417,,-0.064185,,-0.008319,,0.000000,,-0.028016,,-0.199718,
0.212766,,0.115724,,-0.116793,,-0.056890,,-0.091819,,-0.077205,,-0.011146,,0.000000,,-0.005422,,-0.143092,
0.223404,,0.106831,,-0.121290,,-0.027853,,-0.117392,,-0.088497,,-0.021988,,0.000000,,-0.022636,,-0.099438,
0.234043,,0.085716,,-0.117643,,-0.009644,,-0.141735,,-0.100058,,-0.018363,,0.000000,,0.006483,,-0.068189,
0.244681,,0.075800,,-0.117636,,0.004815,,-0.166801,,-0.111559,,-0.011978,,0.000000,,0.030661,,-0.028102,
0.255319,,0.042878,,-0.114546,,0.000456,,-0.186537,,-0.125974,,0.001594,,0.000000,,0.024108,,0.022732,
0.265957,,0.012094,,-0.114102,,0.010838,,-0.230192,,-0.146418,,0.017188,,0.000000,,0.065407,,0.032644,
0.276596,,0.025326,,-0.119521,,-0.005956,,-0.187159,,-0.148206,,0.025801,,0.000000,,0.064494,,0.035120,
0.287234,,0.032884,,-0.130933,,-0.021376,,-0.149921,,-0.147819,,0.034481,,0.000000,,0.058253,,0.002129,
0.297872,,0.018326,,-0.116683,,-0.000652,,-0.115654,,-0.146389,,0.042928,,0.000000,,0.084880,,0.059357,
0.319149,,0.019087,,-0.110257,,-0.002657,,-0.084357,,-0.144094,,0.050909,,0.000000,,0.083971,,0.047212,
0.329787,,0.025676,,-0.107864,,-0.020810,,-0.056247,,-0.141085,,0.058259,,0.000000,,0.053784,,0.036566,
0.340426,,0.019642,,-0.093562,,-0.025368,,-0.016111,,-0.142724,,0.065841,,0.000000,,0.089221,,0.039236,
0.351064,,0.025883,,-0.093301,,-0.030139,,0.004101,,-0.138404,,0.072526,,0.000000,,0.085794,,0.037190,
0.361702,,0.006288,,-0.075210,,-0.027594,,0.020462,,-0.129552,,0.082622,,0.000000,,0.093670,,0.047595,
0.372340,,0.025453,,-0.069845,,-0.013526,,0.050033,,-0.125056,,0.089919,,0.000000,,0.132956,,0.019133,
0.382979,,0.042462,,-0.075700,,-0.024668,,0.055249,,-0.123894,,0.096104,,0.000000,,0.130903,,0.010094,
0.393617,,0.033109,,-0.079546,,-0.029592,,0.048946,,-0.120348,,0.098964,,0.000000,,0.120110,,0.005416,
0.404255,,0.036191,,-0.078856,,-0.026141,,0.059233,,-0.122314,,0.104518,,0.000000,,0.121841,,0.033668,
0.425532,,0.048479,,-0.079040,,-0.038064,,0.072129,,-0.124787,,0.110172,,0.000000,,0.119535,,0.028493,
0.436170,,0.058896,,-0.080074,,-0.062242,,0.086474,,-0.127082,,0.115393,,0.000000,,0.091740,,0.012276,
0.446809,,0.065864,,-0.078940,,-0.055382,,0.101543,,-0.128482,,0.119882,,0.000000,,0.117795,,0.011428,
0.457447,,0.075855,,-0.079889,,-0.062953,,0.098427,,-0.125413,,0.123806,,0.000000,,0.115134,,0.017524,
0.468085,,0.070669,,-0.074207,,-0.072124,,0.124327,,-0.121741,,0.128593,,0.000000,,0.118896,,0.040201,
0.478723,,0.094001,,-0.080629,,-0.079758,,0.136897,,-0.122702,,0.128994,,0.000000,,0.088407,,0.041878,
0.489362,,0.091944,,-0.074744,,-0.084648,,0.138418,,-0.116445,,0.129660,,0.000000,,0.063570,,0.062771,
0.500000,,0.083723,,-0.074821,,-0.093186,,0.135665,,-0.108609,,0.128961,,0.000000,,0.053486,,0.051893,
0.510638,,0.102221,,-0.073180,,-0.112881,,0.138853,,-0.104616,,0.131389,,0.000000,,0.035604,,0.068161,
0.531915,,0.120788,,-0.078961,,-0.123407,,0.130521,,-0.094188,,0.128229,,0.000000,,0.009702,,0.010757,
0.542553,,0.131483,,-0.088762,,-0.123878,,0.120451,,-0.083641,,0.124505,,0.000000,,-0.016891,,0.023531,
0.553191,,0.131467,,-0.095753,,-0.112811,,0.110381,,-0.073540,,0.120747,,0.000000,,-0.017815,,0.040591,
0.563830,,0.126862,,-0.094972,,-0.117356,,0.101398,,-0.064334,,0.117255,,0.000000,,-0.045034,,0.035848,
0.574468,,0.105361,,-0.083028,,-0.091810,,0.097431,,-0.060398,,0.118990,,0.000000,,-0.020844,,0.041288,
0.585106,,0.112484,,-0.084932,,-0.089710,,0.081402,,-0.058107,,0.116490,,0.000000,,-0.037026,,0.023482,
0.595745,,0.113356,,-0.086307,,-0.089704,,0.092269,,-0.059328,,0.118752,,0.000000,,-0.015887,,0.020060,
0.606383,,0.112102,,-0.101275,,-0.106229,,0.102050,,-0.060550,,0.121113,,0.000000,,-0.001216,,-0.004609,
0.617021,,0.111293,,-0.092252,,-0.100380,,0.108715,,-0.063112,,0.124372,,0.000000,,-0.017745,,0.027971,
0.638298,,0.097267,,-0.082262,,-0.078495,,0.121321,,-0.061265,,0.125602,,0.000000,,-0.018370,,0.027136,
0.648936,,0.077907,,-0.064113,,-0.077915,,0.126392,,-0.061146,,0.127897,,0.000000,,-0.010761,,0.065162,
0.659574,,0.066545,,-0.054662,,-0.084556,,0.128565,,-0.060103,,0.130458,,0.000000,,-0.011641,,0.051572,
0.670213,,0.053809,,-0.044910,,-0.079020,,0.129797,,-0.059507,,0.133251,,0.000000,,0.014307,,0.063901,
0.680851,,0.044999,,-0.041244,,-0.054529,,0.133558,,-0.068046,,0.137738,,0.000000,,0.058359,,0.065268,
0.691489,,0.053780,,-0.046865,,-0.060771,,0.147764,,-0.072408,,0.136178,,0.000000,,0.043831,,0.043036,
0.702128,,0.058864,,-0.055817,,-0.066773,,0.141606,,-0.073838,,0.132287,,0.000000,,0.036249,,0.000133,
0.712766,,0.075927,,-0.078857,,-0.077432,,0.133564,,-0.074673,,0.129626,,0.000000,,0.027991,,-0.008341,
0.723404,,0.076354,,-0.067432,,-0.055375,,0.124001,,-0.074702,,0.128030,,0.000000,,0.036855,,-0.004701,
0.744681,,0.091178,,-0.084447,,-0.033504,,0.119654,,-0.077175,,0.122576,,0.000000,,0.020198,,-0.073922,
0.755319,,0.102883,,-0.095091,,-0.027049,,0.107773,,-0.077205,,0.123042,,0.000000,,0.046534,,-0.092004,
0.765957,,0.105880,,-0.098574,,-0.008814,,0.095457,,-0.076907,,0.124106,,0.000000,,0.070203,,-0.085266,
0.776596,,0.092707,,-0.099246,,0.000308,,0.085097,,-0.077712,,0.125469,,0.000000,,0.088072,,-0.065362,
0.787234,,0.101632,,-0.099856,,0.006002,,0.074254,,-0.074628,,0.129507,,0.000000,,0.090816,,-0.068515,
0.797872,,0.099521,,-0.095855,,0.001363,,0.051626,,-0.058345,,0.107544,,0.000000,,0.056410,,-0.064548,
0.808511,,0.084994,,-0.083481,,-0.002539,,0.040397,,-0.040200,,0.093078,,0.000000,,0.036824,,-0.039351,
0.819149,,0.067053,,-0.063507,,0.008877,,0.030037,,-0.023992,,0.076882,,0.000000,,0.022895,,0.004715,
0.829787,,0.035770,,-0.028797,,0.026927,,0.020474,,-0.008737,,0.059889,,0.000000,,0.010350,,0.012303,
0.851064,,0.020446,,-0.015983,,0.027508,,0.012143,,0.005326,,0.042130,,0.000000,,0.012809,,0.032803,
0.861702,,-0.010919,,0.013581,,0.014392,,0.001131,,0.022935,,0.027198,,0.000000,,0.034287,,0.098820,
0.872340,,-0.040548,,0.036845,,0.016899,,-0.004665,,0.034346,,0.007943,,0.000000,,0.013934,,0.115638,
0.882979,,-0.059718,,0.052296,,0.022219,,-0.009591,,0.044745,,-0.011911,,0.000000,,0.019420,,0.130429,
0.893617,,-0.069666,,0.068845,,0.026814,,-0.017524,,0.055158,,-0.035537,,0.000000,,0.001302,,0.126959,
0.904255,,-0.101151,,0.094873,,0.048985,,-0.026471,,0.072394,,-0.074332,,0.000000,,-0.004379,,0.145182,
0.914894,,-0.099477,,0.093912,,0.065823,,-0.023211,,0.072186,,-0.074499,,0.000000,,0.020727,,0.145556,
0.925532,,-0.097019,,0.093391,,0.081068,,-0.019516,,0.071530,,-0.074665,,0.000000,,0.043035,,0.143678,
0.936170,,-0.095110,,0.092513,,0.099323,,-0.015822,,0.071024,,-0.074864,,0.000000,,0.067843,,0.145788,
0.957447,,-0.093211,,0.091638,,0.117612,,-0.012344,,0.070607,,-0.075197,,0.000000,,0.092660,,0.146664,
0.968085,,-0.090749,,0.090874,,0.131514,,-0.008505,,0.070041,,-0.075463,,0.000000,,0.094649,,0.142985,
0.978723,,-0.088096,,0.090433,,0.147667,,-0.004882,,0.069653,,-0.075430,,0.000000,,0.118543,,0.145376,
0.989362,,-0.084758,,0.090229,,0.164586,,-0.001550,,0.069653,,-0.075995,,0.000000,,0.142814,,0.147243,
1.000000,,-0.080432,,0.090090,,0.179020,,0.002996,,0.070262,,-0.076264,,0.000000,,0.147500,,0.144345,
