time,ax,ay,az,gx,gy,gz,mx,my,mz,
72117.1,-0.13,-0.91,0.35,0.09,0.00,-0.02,14.40,40.17,7.34,
72117.2,-0.16,-0.93,0.29,0.11,0.06,-0.01,14.07,40.84,7.67,
72117.3,-0.16,-0.94,0.30,0.00,0.06,-0.01,13.72,40.16,7.38,
72117.4,-0.16,-0.93,0.29,0.03,0.02,-0.02,13.42,39.98,7.46,
72117.5,-0.15,-0.93,0.30,0.09,0.07,-0.01,13.07,39.50,7.34,
72117.6,-0.15,-0.92,0.30,-0.07,-0.15,-0.11,14.23,40.38,8.78,
72117.7,-0.13,-0.93,0.01,-0.07,0.06,-0.06,13.90,40.34,6.53,
72117.8,-0.16,-0.93,0.29,0.08,0.12,-0.04,14.40,39.50,7.67,
72117.9,-0.16,-0.95,0.30,-0.07,0.27,0.14,14.75,40.16,7.77,
72118.1,-0.13,-0.92,0.30,-0.05,0.05,0.03,14.90,40.68,9.14,
72118.2,-0.14,-0.91,0.29,-0.05,0.10,0.01,14.85,39.95,8.93,
72118.3,-0.15,-0.92,0.28,-0.06,0.14,-0.00,14.62,39.63,8.78,
72118.4,-0.16,-0.92,0.27,-0.07,0.15,-0.02,14.40,40.17,10.29,
72118.5,-0.17,-0.93,0.27,-0.04,-0.06,0.07,14.49,40.10,9.14,
72118.6,-0.19,-0.93,0.27,-0.04,-0.05,0.06,16.00,38.06,9.89,
72118.7,-0.23,-0.93,0.32,-0.05,-0.02,0.05,13.23,41.69,9.14,
72118.8,-0.19,-0.93,0.28,-0.08,0.13,-0.03,14.74,38.83,8.00,
72118.9,-0.13,-0.92,0.30,-0.05,0.02,0.04,13.71,41.40,9.14,
72119.1,-0.40,-1.10,0.91,2.66,-0.79,1.58,21.88,37.48,-0.69,
72119.2,-0.51,-1.17,0.81,2.62,-0.85,1.57,30.74,24.91,-21.26,
72119.3,-0.51,-1.17,0.82,2.82,-0.53,1.69,23.09,37.48,-2.46,
72119.4,-0.42,-1.04,0.93,1.04,-0.42,0.69,23.20,36.48,-3.76,
72119.5,-0.49,-1.16,0.88,0.39,-0.72,0.29,23.42,34.45,-6.39,
72119.6,-0.45,-1.14,0.93,2.85,-0.49,1.69,24.34,-6.63,-35.91,
72119.7,-0.43,-1.13,0.93,3.04,-0.45,1.69,24.07,34.55,-8.29,
72119.8,-0.42,-1.11,0.93,3.06,-0.44,1.70,24.59,34.62,-9.82,
72119.9,-0.45,-0.91,0.76,3.08,-0.47,1.72,23.82,-9.20,-35.90,
72120.1,-0.04,0.38,0.97,-0.10,-0.10,-0.06,23.92,-7.75,-35.00,
72120.2,-0.00,0.36,0.94,-0.13,-0.02,-0.08,25.27,-8.44,-34.54,
72120.3,-0.00,0.39,0.90,-0.00,-0.04,0.02,23.57,-9.35,-34.87,
72120.4,-0.08,0.39,0.91,-0.11,-0.06,-0.07,25.09,-10.28,-35.49,
72120.5,-0.02,0.37,0.86,-0.02,-0.04,0.02,24.97,-10.40,-33.68,
72120.6,-0.10,0.36,0.90,-0.03,-0.17,-0.01,23.92,-9.44,-33.36,
72120.7,-0.04,0.37,0.95,-0.01,0.01,0.06,24.92,-10.45,-33.03,
72120.8,-0.05,0.37,0.95,0.01,0.01,0.03,23.74,-9.97,-35.09,
72120.9,-0.05,0.38,0.94,0.00,-0.10,-0.02,23.99,-9.44,-35.65,
72121.1,-0.01,0.22,0.61,0.06,0.03,-0.00,25.52,-9.79,-34.77,
72121.2,0.04,0.23,0.60,0.06,0.03,0.00,24.76,-8.60,-34.83,
72121.3,-0.02,0.13,0.82,-0.01,0.08,0.07,22.91,-5.67,-35.47,
72121.4,-0.13,-0.04,0.96,-1.51,0.56,-1.00,25.73,-9.91,-34.85,
72121.5,-0.18,-0.28,1.08,-1.77,0.03,-1.07,23.75,-7.92,-35.81,
72121.6,-0.02,0.26,0.77,0.03,0.02,0.01,24.80,19.28,-30.51,
72121.7,-0.04,0.23,0.75,-0.02,0.08,0.08,23.83,-8.33,-35.42,
72121.8,-0.01,0.22,0.63,-0.10,0.13,0.12,24.09,-9.61,-34.18,
72121.9,-0.01,0.22,0.63,-0.19,0.12,0.12,24.19,34.62,-13.16,
72122.1,-0.02,-0.89,0.96,-0.96,0.60,-0.22,21.69,36.93,-7.83,
72122.2,-0.33,-0.86,0.27,-0.99,0.79,-0.24,23.42,36.14,-7.37,
72122.3,-0.24,-0.90,0.29,-1.01,0.17,-0.24,19.58,36.64,3.26,
72122.4,-0.14,-0.91,0.45,-0.97,0.70,-0.23,22.92,37.31,-3.94,
72122.5,-0.25,-0.91,0.30,-1.11,0.22,-0.26,22.83,37.05,-4.02,
72122.6,-0.34,-0.85,0.47,-1.27,0.68,-0.21,19.91,39.33,6.85,
72122.7,-0.20,-0.81,0.66,0.03,-0.07,0.02,22.75,36.81,-4.10,
72122.8,-0.03,-0.83,1.00,-0.00,-0.01,-0.01,22.12,36.17,-2.49,
72122.9,0.04,-0.83,1.03,-1.31,0.88,-0.17,17.91,38.66,5.55,
72123.1,-0.21,-0.91,0.33,0.01,0.03,-0.02,18.80,38.23,5.69,
72123.2,-0.22,-0.91,0.33,0.01,0.03,-0.02,18.08,38.40,6.01,
72123.3,-0.21,-0.91,0.33,0.01,0.02,-0.02,18.08,37.82,5.06,
72123.4,-0.22,-0.91,0.33,-0.01,-0.01,0.01,18.08,38.83,6.69,
72123.5,-0.21,-0.91,0.33,0.01,0.02,-0.02,18.74,39.16,4.73,
72123.6,-0.21,-0.90,0.34,0.01,0.01,-0.02,18.91,39.33,4.57,
72123.7,-0.22,-0.90,0.33,0.00,0.00,-0.02,18.11,38.37,5.33,
72123.8,-0.22,-0.90,0.34,0.00,-0.00,-0.02,19.08,39.16,5.71,
72123.9,-0.22,-0.91,0.33,-0.00,-0.01,-0.02,18.91,37.65,5.87,
72124.1,-0.23,-0.91,0.33,0.02,0.01,0.00,19.25,38.66,5.55,
72124.2,-0.22,-0.90,0.34,0.02,0.01,0.01,17.95,38.57,5.94,
72124.3,-0.22,-0.90,0.33,0.02,0.01,0.01,18.41,38.49,6.04,
72124.4,-0.22,-0.90,0.33,0.01,0.01,0.01,18.41,38.15,6.04,
72124.5,-0.23,-0.90,0.34,0.01,0.01,0.01,18.28,38.05,5.05,
72124.6,-0.22,-0.90,0.33,-0.01,0.00,-0.03,19.19,38.83,5.66,
72124.7,-0.23,-0.90,0.33,0.01,0.01,0.01,18.58,40.34,4.89,
72124.8,-0.22,-0.90,0.33,0.01,0.00,0.01,17.91,38.32,5.87,
72124.9,-0.23,-0.90,0.34,0.01,-0.01,0.01,18.42,39.87,5.65,
72125.1,-0.22,-0.90,0.33,-0.00,0.01,0.00,18.84,38.82,5.08,
72125.2,-0.21,-0.91,0.34,0.01,0.00,0.01,18.67,38.67,5.56,
72125.3,-0.21,-0.91,0.33,-0.01,-0.05,0.01,17.91,38.66,5.55,
72125.4,-0.22,-0.90,0.33,0.00,-0.03,0.02,18.24,39.31,6.79,
72125.5,-0.21,-0.90,0.34,0.01,-0.04,0.01,17.79,38.54,5.32,
72125.6,-0.21,-0.90,0.33,0.01,-0.01,0.01,17.58,38.32,4.89,
72125.7,-0.21,-0.90,0.33,0.01,0.01,0.01,18.41,38.49,5.71,
72125.8,-0.22,-0.90,0.34,0.00,0.01,0.00,18.41,38.49,5.71,
72125.9,-0.21,-0.90,0.33,1.96,-0.68,1.61,19.58,38.32,6.53,
72126.1,-0.45,-0.51,0.80,2.51,-0.68,1.87,32.27,19.82,-18.98,
72126.2,-0.48,-0.76,0.83,2.09,-1.33,1.02,29.43,30.75,-10.96,
72126.3,-0.48,-0.72,0.81,2.50,-0.68,1.88,28.79,31.40,-9.07,
72126.4,-0.45,-0.63,0.85,2.52,-0.77,1.82,27.09,-3.22,-32.87,
72126.5,-0.44,-0.60,0.86,2.51,-1.05,1.69,32.94,26.89,-13.09,
72126.6,-0.43,-0.58,0.83,2.52,-1.16,1.59,23.45,-8.28,-34.55,
72126.7,-0.44,-0.57,0.83,2.51,-1.17,1.56,31.10,24.70,-16.85,
72126.8,-0.45,-0.55,0.81,2.50,-1.17,1.50,23.46,-8.86,-36.25,
72126.9,-0.49,-0.74,0.81,2.46,-1.12,1.44,31.23,24.15,-17.09,
72127.1,-0.12,0.34,0.86,0.12,-0.07,-0.04,25.82,-9.77,-33.35,
72127.2,-0.07,0.35,0.91,-0.04,-0.05,0.03,27.26,-8.76,-34.67,
72127.3,-0.08,0.37,0.90,-0.04,-0.18,0.02,25.76,-8.26,-34.18,
72127.4,-0.08,0.35,0.93,-0.01,0.16,-0.05,25.14,-8.98,-33.83,
72127.5,-0.07,0.37,0.90,0.11,-0.05,-0.04,25.81,-8.42,-34.07,
72127.6,-0.07,0.35,0.87,0.11,-0.04,-0.04,26.09,-9.27,-33.53,
72127.7,-0.07,0.34,0.90,0.06,0.10,-0.04,25.56,-8.10,-34.52,
72127.8,-0.07,0.35,0.90,0.05,0.16,-0.06,25.42,-7.92,-33.53,
72127.9,-0.11,0.35,0.87,0.12,-0.08,-0.04,24.92,-9.77,-34.01,
72128.1,0.04,0.08,0.63,-1.34,0.37,-0.47,28.38,2.73,-33.53,
72128.2,0.03,0.07,0.62,-1.68,0.79,-1.38,24.09,-4.90,-35.16,
72128.3,0.01,0.06,0.60,-2.05,0.83,-1.56,28.45,18.19,-27.99,
72128.4,0.05,0.12,0.68,-1.37,0.43,-0.51,24.78,-5.36,-34.93,
72128.5,-0.06,0.08,0.76,-1.29,0.27,-0.39,23.25,34.29,-13.42,
72128.6,0.04,0.10,0.65,-1.31,0.32,-0.43,22.36,35.07,-10.82,
72128.7,-0.04,0.02,0.87,-1.68,0.40,-0.86,27.76,-2.20,-34.18,
72128.8,-0.04,-0.02,0.87,-1.68,0.40,-0.89,27.76,-2.20,-34.18,
72128.9,-0.05,-0.06,0.86,-1.66,0.53,-0.97,28.08,0.98,-33.56,
72129.1,-0.35,-0.90,0.24,-0.10,-0.12,0.03,19.58,37.99,4.24,
72129.2,-0.34,-0.89,0.24,-0.15,-0.19,0.09,20.29,38.50,3.94,
72129.3,-0.27,-0.90,0.30,-0.22,-0.34,0.15,20.30,37.38,4.65,
72129.4,-0.23,-0.90,0.32,-0.07,-0.10,-0.01,20.75,38.83,3.75,
72129.5,-0.21,-0.91,0.36,-0.00,-0.02,-0.01,19.75,38.58,2.53,
72129.6,-0.15,-0.89,0.42,-0.24,-0.38,0.16,19.76,36.65,3.22,
72129.7,-0.14,-0.90,0.43,-0.34,-0.35,0.18,19.41,38.49,2.11,
72129.8,-0.20,-0.92,0.47,-0.36,-0.16,0.18,19.85,38.94,3.41,
72129.9,-0.18,-0.93,0.48,-0.34,-0.02,0.24,20.58,39.00,4.57,
72130.1,-0.23,-0.90,0.34,-0.00,-0.00,0.00,20.36,37.68,5.25,
72130.2,-0.23,-0.89,0.34,0.00,-0.01,0.01,19.08,38.83,4.40,
72130.3,-0.23,-0.89,0.34,0.00,0.00,0.01,19.42,38.36,4.40,
72130.4,-0.23,-0.89,0.34,0.00,-0.01,0.01,21.58,37.65,5.22,
72130.5,-0.23,-0.89,0.34,0.00,0.01,0.01,21.08,36.14,4.40,
72130.6,-0.24,-0.89,0.34,-0.01,0.01,0.01,20.40,36.55,4.54,
72130.7,-0.24,-0.90,0.34,-0.01,0.01,0.01,19.08,37.82,4.73,
72130.8,-0.23,-0.89,0.35,-0.01,0.01,0.00,19.41,37.14,4.73,
72130.9,-0.23,-0.90,0.35,0.01,-0.00,0.02,20.22,37.67,4.68,
72131.1,-0.24,-0.89,0.35,0.01,0.01,0.01,20.00,37.69,4.85,
72131.2,-0.24,-0.89,0.36,0.00,0.00,0.01,21.94,37.27,5.39,
72131.3,-0.25,-0.89,0.35,-0.02,0.01,-0.01,20.74,37.29,5.19,
72131.4,-0.24,-0.89,0.36,0.01,0.04,-0.01,21.42,36.81,6.04,
72131.5,-0.25,-0.89,0.35,0.01,0.04,0.00,19.94,36.92,5.48,
72131.6,-0.25,-0.89,0.35,0.01,0.04,-0.01,20.41,36.47,4.40,
72131.7,-0.24,-0.89,0.35,-0.00,0.01,-0.01,19.25,36.98,5.22,
72131.8,-0.24,-0.89,0.34,0.01,0.03,0.01,19.85,37.58,4.92,
72131.9,-0.25,-0.89,0.35,0.01,0.01,0.01,20.92,36.30,4.57,
72132.1,-0.24,-0.89,0.34,-0.02,-0.05,0.01,20.56,37.99,4.36,
72132.2,-0.24,-0.89,0.35,-0.02,-0.43,0.05,20.08,38.15,4.73,
72132.3,-0.24,-0.89,0.35,0.24,-0.50,0.16,22.08,36.47,4.40,
72132.4,-0.24,-0.89,0.35,0.01,-0.01,0.01,20.24,38.31,5.51,
72132.5,-0.24,-0.89,0.34,0.01,-0.02,0.01,25.09,34.45,-3.77,
72132.6,-0.24,-0.89,0.34,-0.00,-0.04,0.01,26.47,32.71,-12.68,
72132.7,-0.36,-0.61,0.84,-0.01,-0.04,0.02,28.10,30.42,-15.54,
72132.8,-0.24,-0.89,0.34,-0.01,-0.04,0.02,20.25,38.32,5.55,
72132.9,-0.25,-0.89,0.35,-0.01,-0.04,0.02,20.41,38.49,5.38,
72133.1,0.08,0.23,0.65,0.28,-0.09,0.20,22.08,-3.55,-38.10,
72133.2,0.10,0.25,0.63,0.96,-0.53,0.73,24.61,0.73,-36.69,
72133.3,0.10,0.25,0.61,0.86,-0.30,0.62,22.77,-7.23,-36.80,
72133.4,0.09,0.23,0.65,0.65,0.00,0.39,23.09,-0.86,-36.47,
72133.5,0.09,0.25,0.59,0.61,0.03,0.35,23.24,-4.99,-35.93,
72133.6,0.07,0.24,0.61,0.48,0.07,0.27,22.89,-1.47,-36.66,
72133.7,0.07,0.24,0.62,0.44,0.06,0.26,22.42,-2.88,-37.12,
72133.8,0.05,0.24,0.66,0.38,0.03,0.24,22.22,-3.28,-37.70,
72133.9,0.05,0.22,0.68,0.31,-0.05,0.22,22.75,-6.58,-36.47,
72134.1,0.03,0.24,0.91,0.05,-0.06,0.10,23.06,-6.21,-36.69,
72134.2,0.03,0.29,0.95,-0.09,0.10,0.04,23.63,-6.51,-36.27,
72134.4,0.03,0.26,0.94,-0.93,0.29,-0.33,23.66,-6.63,-36.79,
72134.5,0.02,0.27,0.94,-1.09,0.48,-0.70,25.76,0.15,-35.81,
72134.6,0.01,0.28,0.95,0.05,-0.00,0.08,23.09,-6.91,-36.79,
72134.7,0.02,0.31,0.96,0.04,0.07,0.01,22.81,-6.37,-36.79,
72134.8,0.02,0.29,0.95,0.02,0.06,0.02,26.09,19.66,-29.27,
72134.9,0.02,0.25,0.93,0.05,-0.04,0.09,26.09,25.71,-25.68,
72135.1,-0.21,-0.70,0.93,-1.38,0.54,-0.38,23.09,33.45,-14.23,
72135.2,-0.19,-0.74,0.88,-0.65,0.17,-0.22,24.09,30.75,-18.81,
72135.3,-0.18,-0.67,0.93,-0.69,1.34,0.29,23.07,30.50,-18.31,
72135.4,-0.18,-0.67,0.92,-1.14,0.59,-0.34,22.75,30.42,-18.16,
72135.5,-0.19,-0.68,0.91,-1.06,0.78,-0.35,23.50,36.20,-4.55,
72135.6,-0.19,-0.68,0.90,-0.99,0.84,-0.34,23.42,36.14,-3.77,
72135.7,-0.21,-0.68,0.90,-0.98,0.83,-0.33,24.09,33.11,-14.56,
72135.8,-0.21,-0.69,0.91,-0.95,0.80,-0.30,24.09,33.11,-14.56,
72135.9,-0.21,-0.70,0.91,-1.41,0.56,-0.39,24.33,35.78,-2.28,
72136.1,-0.24,-0.85,0.47,0.00,0.17,-0.02,24.09,35.92,-1.30,
72136.2,-0.23,-0.85,0.46,0.01,-0.05,0.01,24.41,37.04,-1.76,
72136.3,-0.24,-0.85,0.46,-0.01,-0.01,0.01,24.27,35.45,-1.06,
72136.4,-0.24,-0.85,0.46,-0.00,0.15,-0.03,23.85,36.17,0.05,
72136.5,-0.27,-0.85,0.43,0.00,0.25,-0.01,23.66,36.29,-1.27,
72136.6,-0.27,-0.85,0.42,-0.01,0.20,-0.02,23.92,36.98,-1.32,
72136.7,-0.27,-0.85,0.43,-0.01,0.16,-0.02,23.76,37.08,-0.64,
72136.8,-0.28,-0.84,0.44,-0.01,0.12,-0.02,23.59,36.98,-1.32,
72136.9,-0.27,-0.84,0.44,-0.01,0.09,-0.02,24.09,37.14,-0.83,
72137.1,-0.25,-0.84,0.45,-0.01,0.01,-0.01,24.57,36.28,0.17,
72137.2,-0.25,-0.84,0.45,-0.00,0.00,-0.00,24.09,36.47,-1.81,
72137.3,-0.24,-0.85,0.45,-0.01,0.01,0.01,23.98,36.15,-1.35,
72137.4,-0.25,-0.85,0.45,0.01,-0.01,-0.00,23.59,34.96,-1.97,
72137.5,-0.24,-0.84,0.46,0.02,-0.01,-0.00,23.59,34.96,0.31,
72137.6,-0.25,-0.84,0.45,0.01,0.00,-0.01,23.84,35.21,-0.67,
72137.7,-0.24,-0.84,0.45,0.01,0.01,-0.01,24.85,36.22,-0.06,
72137.8,-0.25,-0.84,0.44,0.02,-0.01,-0.01,24.26,36.30,-2.30,
72137.9,-0.26,-0.83,0.45,-0.01,0.01,-0.01,24.42,36.05,-0.02,
72138.1,-0.26,-0.84,0.45,-0.01,0.03,0.02,24.69,35.86,-0.24,
72138.2,-0.25,-0.83,0.46,0.01,0.04,0.04,23.95,35.06,-2.33,
72138.3,-0.24,-0.86,0.46,-0.00,0.04,0.03,24.09,34.79,-2.46,
72138.4,-0.25,-0.81,0.44,-0.01,0.04,0.03,24.47,36.04,-1.95,
72138.5,-0.26,-0.83,0.45,-0.01,0.04,0.03,24.09,36.08,-0.70,
72138.6,-0.25,-0.84,0.45,0.02,-0.18,0.11,23.35,36.08,-0.85,
72138.7,-0.26,-0.84,0.45,-0.05,-0.20,0.03,23.25,35.63,-1.32,
72138.8,-0.25,-0.85,0.47,-0.01,0.03,0.01,23.75,35.46,-2.14,
72138.9,-0.26,-0.84,0.45,-0.01,0.03,0.03,24.14,36.31,-0.23,
72139.1,-0.25,-0.86,0.84,1.03,-0.59,0.62,24.10,35.85,-2.92,
72139.2,-0.27,-0.87,0.85,0.10,-0.36,-0.07,22.75,37.48,-3.45,
72139.3,-0.34,-0.90,0.86,0.49,-0.22,-0.02,22.75,37.48,-3.45,
72139.4,-0.38,-0.90,0.87,0.59,-0.24,0.08,26.13,27.73,-21.63,
72139.5,-0.23,-0.83,0.80,0.67,-0.28,0.20,24.09,36.47,-3.77,
72139.6,0.01,0.11,0.52,0.75,-0.33,0.32,24.09,36.49,-3.71,
72139.7,-0.24,-0.84,0.81,0.85,-0.35,0.46,22.42,-3.22,-38.43,
72139.8,0.05,0.23,0.77,0.96,-0.53,0.60,24.09,36.81,-2.79,
72139.9,-0.24,-0.85,0.83,0.99,-0.57,0.62,22.86,36.47,-4.43,
72140.1,0.04,0.20,1.00,-0.07,0.30,-0.06,22.25,-5.74,-37.28,
72140.2,0.02,0.21,1.01,-0.05,0.29,-0.04,22.08,-5.80,-37.68,
72140.3,0.07,0.20,0.96,-0.04,0.27,-0.04,21.75,-5.91,-38.43,
72140.4,0.06,0.21,0.97,-0.01,0.26,-0.04,21.79,-5.01,-36.43,
72140.5,0.03,0.21,1.02,0.01,0.26,-0.05,21.07,-5.56,-37.76,
72140.6,0.03,0.22,1.00,0.05,0.26,-0.06,20.41,-5.23,-37.12,
72140.7,0.04,0.25,0.99,0.05,0.26,-0.06,22.83,-4.64,-35.89,
72140.8,0.04,0.27,0.97,-0.12,0.25,-0.08,21.35,-5.94,-37.35,
72140.9,0.03,0.29,0.97,-0.10,0.26,-0.07,22.42,-4.89,-37.11,
72141.1,0.03,0.04,0.60,-0.86,0.18,-0.17,24.92,0.65,-36.63,
72141.2,0.01,0.04,0.60,-1.90,1.11,-1.03,25.59,9.06,-32.71,
72141.3,0.03,0.04,0.62,-0.81,0.18,-0.13,26.09,19.32,-27.64,
72141.4,0.03,0.03,0.61,-0.83,0.18,-0.15,26.26,26.89,-22.90,
72141.5,-0.02,0.01,0.64,-0.93,0.19,-0.23,23.92,32.60,-17.01,
72141.6,-0.02,-0.00,0.65,-1.17,0.22,-0.31,24.18,-2.45,-35.83,
72141.7,-0.02,-0.03,0.68,-1.27,0.30,-0.31,24.15,-2.33,-37.03,
72141.8,0.00,-0.03,0.73,-1.37,0.41,-0.35,21.95,37.59,2.44,
72141.9,0.01,-0.02,0.73,-1.40,0.43,-0.37,24.84,0.25,-36.39,
72142.1,-0.34,-0.84,0.26,-0.29,0.18,0.27,21.08,38.15,4.40,
72142.2,-0.35,-0.84,0.24,-0.15,-0.38,0.06,21.08,38.15,4.40,
72142.3,-0.34,-0.85,0.25,-0.14,-0.04,0.06,20.58,37.65,4.24,
72142.4,-0.28,-0.86,0.31,-0.11,-0.42,0.04,19.75,36.47,5.06,
72142.5,-0.24,-0.87,0.37,-0.21,-0.32,0.10,20.80,37.82,4.31,
72142.6,-0.21,-0.88,0.38,-0.26,-0.26,0.12,20.92,36.98,3.26,
72142.7,-0.26,-0.91,0.37,-0.37,0.06,0.18,20.25,39.00,6.20,
72142.8,-0.22,-0.91,0.47,-0.37,0.13,0.23,20.92,37.45,3.56,
72142.9,-0.20,-0.92,0.49,-0.35,0.17,0.26,20.92,37.99,3.91,
72143.1,-0.27,-0.89,0.35,-0.00,0.03,-0.02,21.30,37.22,4.98,
72143.2,-0.27,-0.89,0.34,0.00,0.03,-0.02,21.08,37.14,5.06,
72143.3,-0.26,-0.89,0.34,-0.00,0.02,-0.02,21.08,37.37,5.06,
72143.4,-0.26,-0.89,0.34,-0.00,0.03,-0.02,20.75,37.48,6.36,
72143.5,-0.27,-0.89,0.33,0.01,0.03,-0.02,21.08,37.48,5.06,
72143.6,-0.27,-0.89,0.33,0.01,0.01,-0.01,21.54,37.39,4.61,
72143.7,-0.27,-0.89,0.34,-0.00,0.03,-0.02,20.74,36.69,4.51,
72143.8,-0.27,-0.89,0.33,-0.00,0.03,-0.00,21.48,36.70,5.29,
72143.9,-0.27,-0.89,0.34,-0.00,0.02,0.01,21.42,36.47,5.38,
72144.1,-0.26,-0.89,0.34,0.01,0.02,-0.00,21.42,38.83,5.06,
72144.2,-0.27,-0.89,0.34,-0.00,0.00,-0.01,22.13,36.29,5.23,
72144.3,-0.27,-0.89,0.34,0.01,0.01,-0.01,21.06,37.76,5.17,
72144.4,-0.26,-0.89,0.34,0.00,-0.03,0.00,21.08,36.14,5.38,
72144.5,-0.27,-0.89,0.33,0.02,0.01,-0.00,20.92,37.31,5.22,
72144.6,-0.27,-0.88,0.34,0.01,0.01,0.00,20.83,37.40,4.81,
72144.7,-0.26,-0.88,0.34,0.01,0.01,-0.01,21.26,36.96,4.28,
72144.8,-0.27,-0.89,0.34,0.00,-0.00,0.00,20.75,37.48,4.40,
72144.9,-0.26,-0.89,0.34,-0.00,-0.01,0.00,21.24,36.98,5.86,
72145.1,-0.26,-0.89,0.34,-0.00,-0.02,0.01,21.07,37.15,4.75,
72145.2,-0.26,-0.89,0.35,-0.01,-0.00,-0.00,21.49,36.63,4.90,
72145.3,-0.26,-0.89,0.35,0.01,-0.01,0.01,21.52,37.92,4.66,
72145.4,-0.26,-0.89,0.35,0.00,-0.01,0.01,21.55,37.87,5.00,
72145.5,-0.29,-0.89,0.35,-0.06,-0.12,0.03,20.41,36.81,3.42,
72145.6,-0.26,-0.89,0.35,0.00,-0.02,0.01,21.42,37.48,5.38,
72145.7,-0.27,-0.89,0.35,0.30,-0.44,-0.10,21.32,37.45,5.35,
72145.8,-0.40,-0.94,0.84,1.38,-0.79,0.51,21.25,37.65,3.58,
72145.9,-0.27,-0.89,0.34,0.00,-0.01,0.01,20.92,37.31,5.22,
72146.1,-0.34,-0.49,0.70,2.59,-0.21,1.21,27.09,26.05,-21.75,
72146.2,-0.34,-0.80,0.78,2.83,-0.18,0.98,25.76,30.75,-15.54,
72146.3,-0.34,-0.74,0.77,2.85,-0.11,1.05,28.26,5.70,-33.36,
72146.4,-0.33,-0.70,0.76,2.82,-0.12,1.10,24.26,-1.36,-36.30,
72146.5,-0.33,-0.66,0.74,2.76,-0.15,1.14,21.26,-5.42,-38.49,
72146.6,-0.34,-0.84,0.82,2.68,-0.18,1.18,22.06,-8.62,-37.48,
72146.7,-0.34,-0.82,0.80,-0.08,0.21,0.14,21.58,-9.44,-35.98,
72146.8,-0.33,-0.56,0.69,2.76,-0.28,0.95,21.97,-8.52,-36.90,
72146.9,-0.34,-0.54,0.68,2.80,-0.22,0.96,25.76,31.09,-19.79,
72147.1,-0.02,0.33,0.90,0.04,-0.06,-0.04,22.96,-7.55,-35.45,
72147.2,-0.02,0.32,0.93,-0.05,0.02,-0.06,23.42,-7.76,-35.94,
72147.3,-0.01,0.32,0.92,0.05,-0.08,0.02,23.42,-7.92,-35.16,
72147.4,-0.01,0.33,0.93,0.04,-0.08,-0.00,23.10,-7.42,-36.54,
72147.5,-0.00,0.33,0.92,0.04,-0.09,-0.02,22.75,-7.59,-35.49,
72147.6,-0.01,0.33,0.92,0.05,-0.09,-0.03,23.92,-8.09,-35.98,
72147.7,-0.01,0.32,0.93,0.03,0.02,-0.03,23.59,-7.75,-35.98,
72147.8,-0.02,0.32,0.93,0.01,0.04,-0.01,22.25,-8.09,-37.61,
72147.9,-0.01,0.33,0.90,0.05,-0.07,-0.03,23.25,-7.42,-35.32,
72149.7,0.02,0.31,0.93,-0.01,0.02,-0.01,25.42,-3.89,-38.76,
72149.8,0.05,0.25,0.80,-0.61,0.26,-0.16,21.86,37.37,5.07,
72149.9,-0.25,-0.72,1.01,-1.18,0.87,-0.43,22.05,37.33,5.23,
72150.1,-0.24,-0.88,0.52,0.13,0.11,-0.12,21.62,36.36,5.16,
72150.2,-0.31,-0.87,0.35,-0.17,0.23,0.51,21.77,37.93,4.59,
72150.3,-0.26,-0.90,0.61,-0.10,0.15,0.35,21.42,36.81,5.71,
72150.4,-0.28,-0.92,0.58,-0.07,0.12,0.26,20.31,38.51,4.74,
72150.5,-0.27,-0.91,0.58,-0.02,0.06,0.11,22.26,36.45,4.01,
72150.6,-0.26,-0.90,0.57,-0.00,0.05,0.08,23.09,36.81,5.06,
72150.7,-0.25,-0.90,0.55,0.04,0.06,0.06,22.48,36.64,5.24,
72150.8,-0.24,-0.89,0.51,0.08,0.09,0.03,21.75,38.15,4.73,
72150.9,-0.24,-0.88,0.52,0.10,0.10,-0.00,21.58,36.30,5.87,
72151.1,-0.28,-0.88,0.35,-0.00,-0.01,-0.01,23.25,36.30,5.22,
72151.2,-0.28,-0.88,0.34,-0.00,-0.00,-0.00,22.42,35.80,3.75,
72151.3,-0.29,-0.88,0.34,-0.00,-0.01,-0.01,21.39,36.68,5.28,
72151.4,-0.28,-0.88,0.34,-0.01,-0.00,-0.00,22.17,36.37,4.31,
72151.5,-0.29,-0.89,0.34,-0.00,-0.00,-0.01,21.92,36.98,4.89,
72151.6,-0.28,-0.88,0.34,-0.00,-0.00,-0.01,21.76,37.77,5.67,
72151.7,-0.28,-0.88,0.33,0.01,0.00,-0.00,20.90,36.63,5.21,
72151.8,-0.28,-0.88,0.34,0.00,-0.00,-0.00,21.75,37.82,6.04,
72151.9,-0.28,-0.88,0.34,-0.00,-0.00,-0.00,21.63,36.14,4.96,
72152.1,-0.28,-0.88,0.34,0.01,0.01,-0.01,21.81,38.44,4.53,
72152.2,-0.28,-0.88,0.34,0.00,0.01,-0.01,21.75,36.81,4.08,
72152.3,-0.28,-0.88,0.35,0.01,0.01,-0.01,23.20,37.01,7.20,
72152.4,-0.29,-0.88,0.34,1.41,-0.54,0.70,22.59,36.64,5.87,
72152.5,-0.50,-0.89,0.80,2.37,-0.54,0.91,26.26,32.94,-10.15,
72152.6,-0.29,-0.89,0.33,2.35,-0.66,1.30,20.83,36.55,5.06,
72152.7,-0.28,-0.36,0.72,0.00,-0.01,-0.01,30.06,18.04,-26.28,
72152.8,-0.29,-0.88,0.34,-0.01,-0.03,0.00,19.41,36.47,4.40,
72152.9,-0.29,-0.88,0.36,-0.02,-0.07,0.01,23.92,37.65,4.24,
72153.1,0.10,0.25,0.71,0.72,-0.34,0.40,24.49,-3.48,-34.84,
72153.2,0.08,0.25,0.75,0.64,-0.16,0.22,23.75,-4.22,-36.14,
72153.3,0.09,0.25,0.74,-0.11,0.02,-0.07,24.24,-6.76,-34.71,
72153.4,0.10,0.26,0.70,0.16,0.14,-0.06,24.33,-3.99,-36.14,
72153.5,0.09,0.28,0.73,0.01,0.03,-0.00,25.42,-3.55,-36.14,
72153.6,0.08,0.28,0.75,0.59,-0.11,0.17,23.65,-7.69,-34.86,
72153.7,0.04,0.25,0.75,0.41,0.11,-0.02,23.83,-4.56,-36.33,
72153.8,0.03,0.25,0.74,0.77,-0.37,0.45,23.59,-9.10,-35.98,
72153.9,0.01,0.23,0.73,0.74,-0.36,0.43,23.09,-7.25,-35.81,
72154.1,-0.01,0.30,0.93,0.05,0.25,0.04,22.92,-8.43,-35.65,
72154.2,-0.02,0.31,0.93,-0.05,0.05,-0.07,22.81,-8.95,-35.35,
72154.3,-0.01,0.31,0.93,-0.04,0.08,-0.04,25.26,-8.09,-34.67,
72154.4,-0.01,0.29,0.91,-0.03,0.12,-0.02,22.75,-9.27,-35.16,
72154.5,-0.01,0.28,0.91,-1.62,0.89,-0.94,23.32,-8.41,-35.44,
72154.6,0.02,0.27,0.89,-1.72,0.71,-1.41,28.10,10.57,-31.56,
72154.7,0.03,0.27,0.91,-0.04,0.12,0.01,23.42,-8.26,-35.49,
72154.8,0.03,0.27,0.92,-0.01,0.17,0.06,26.59,26.21,-20.28,
72154.9,0.03,0.27,0.93,0.02,0.21,0.05,25.92,31.93,-16.36,
72155.1,-0.30,-0.81,0.60,-0.99,0.30,-0.33,24.26,34.96,-10.15,
72155.2,-0.34,-0.74,0.77,-1.01,0.28,-0.29,23.42,37.14,-3.77,
72155.3,-0.35,-0.77,0.71,-1.02,0.26,-0.26,24.56,36.60,-8.77,
72155.4,-0.26,-0.80,0.74,-0.80,0.28,-0.24,24.95,35.81,2.07,
72155.5,-0.28,-0.81,0.67,-0.69,0.35,-0.28,23.75,35.46,-6.71,
72155.6,-0.29,-0.80,0.66,-0.02,0.01,-0.13,23.67,35.64,-7.05,
72155.7,-0.30,-0.80,0.65,-0.06,0.04,-0.01,23.33,36.59,2.05,
72155.8,-0.31,-0.81,0.62,-0.65,0.38,-0.29,23.42,36.14,-8.02,
72155.9,-0.31,-0.81,0.61,-0.61,0.44,-0.21,23.51,35.87,-7.10,
72156.1,-0.30,-0.86,0.39,-0.00,-0.01,0.01,24.57,35.31,2.28,
72156.2,-0.31,-0.86,0.39,-0.01,0.02,-0.01,23.28,36.90,2.42,
72156.3,-0.30,-0.85,0.40,0.00,-0.01,0.01,23.41,37.18,2.55,
72156.4,-0.30,-0.85,0.40,0.00,-0.02,0.00,24.59,37.31,2.93,
72156.5,-0.30,-0.85,0.39,0.01,-0.03,-0.00,23.08,34.80,2.53,
72156.6,-0.31,-0.86,0.38,0.01,-0.03,-0.01,23.83,36.33,3.04,
72156.7,-0.31,-0.85,0.38,0.02,-0.03,-0.02,23.42,35.80,3.09,
72156.8,-0.31,-0.85,0.38,0.01,-0.02,-0.02,23.30,35.95,2.77,
72156.9,-0.30,-0.86,0.38,-0.01,0.01,-0.01,23.68,36.32,2.84,
72157.1,-0.30,-0.86,0.39,-0.02,-0.00,-0.01,24.17,36.30,2.96,
72157.2,-0.31,-0.86,0.38,-0.02,-0.01,-0.02,23.44,35.89,1.28,
72157.3,-0.30,-0.86,0.38,-0.00,0.02,-0.01,23.42,37.48,2.44,
72157.4,-0.31,-0.85,0.38,-0.00,0.03,-0.01,24.59,35.63,3.26,
72157.5,-0.30,-0.85,0.39,-0.00,0.03,-0.02,23.28,36.04,3.42,
72157.6,-0.30,-0.85,0.39,-0.01,0.01,-0.01,22.92,37.31,3.26,
72157.7,-0.30,-0.86,0.39,0.00,-0.03,0.01,23.99,36.50,3.48,
72157.8,-0.30,-0.86,0.39,0.01,0.01,0.00,23.92,36.30,2.93,
72157.9,-0.30,-0.86,0.38,0.01,0.03,-0.01,24.26,36.30,2.60,
72158.1,-0.30,-0.86,0.38,0.00,0.00,-0.00,23.59,35.30,2.60,
72158.2,-0.30,-0.86,0.38,0.00,0.01,-0.00,23.86,35.69,3.64,
72158.3,-0.31,-0.86,0.38,0.00,-0.00,-0.00,23.34,35.79,3.09,
72158.4,-0.30,-0.86,0.38,0.00,0.01,-0.01,23.34,35.87,3.80,
72158.5,-0.31,-0.86,0.38,0.00,-0.00,-0.01,23.25,35.97,3.26,
72158.6,-0.31,-0.86,0.38,0.00,0.01,-0.00,24.04,35.11,2.51,
72158.7,-0.31,-0.86,0.38,0.00,0.01,-0.00,24.09,37.14,3.75,
72158.8,-0.30,-0.86,0.38,0.00,0.00,0.00,23.92,35.63,2.60,
72158.9,-0.30,-0.86,0.38,0.67,-0.80,0.41,23.30,35.32,3.51,
72159.1,-0.46,-0.94,0.99,2.22,-0.87,1.01,27.26,30.25,-14.40,
72159.2,-0.46,-0.93,0.98,1.57,-1.04,0.74,29.26,23.86,-20.61,
72159.3,-0.25,-0.27,0.69,1.83,-1.00,0.88,25.09,33.78,-4.43,
72159.4,-0.11,0.10,0.60,2.04,-0.90,1.00,24.42,35.13,-3.77,
72159.5,-0.01,0.19,0.56,2.17,-0.87,1.01,28.26,-4.06,-35.00,
72159.6,0.06,0.23,0.70,0.34,-0.27,0.24,24.42,35.13,-3.77,
72159.7,0.07,0.28,0.82,-0.03,-0.01,0.14,26.26,32.60,-8.51,
72159.8,-0.46,-0.94,0.95,-0.31,-0.17,-0.12,27.02,32.60,-9.63,
72159.9,-0.46,-0.94,0.97,-0.11,0.04,-0.17,27.60,32.60,-10.48,
72160.1,0.01,0.28,0.94,0.08,-0.02,0.01,22.08,-7.25,-37.12,
72160.2,0.01,0.28,0.95,0.14,0.18,0.02,21.75,-5.91,-36.79,
72160.3,0.01,0.28,0.95,0.14,0.18,0.02,22.18,-6.34,-36.17,
72160.4,0.01,0.30,0.92,0.13,0.14,0.01,22.42,-6.58,-35.81,
72160.5,-0.01,0.28,0.91,0.13,0.10,-0.00,21.92,-6.75,-37.28,
72160.6,-0.01,0.27,0.91,0.12,0.06,-0.01,21.71,-7.63,-35.94,
72160.7,-0.00,0.30,0.93,0.11,0.02,-0.01,23.25,-6.75,-36.30,
72160.8,0.02,0.29,0.92,0.10,-0.01,-0.00,23.10,-6.81,-36.41,
72160.9,0.06,0.24,0.92,-0.02,0.05,-0.00,20.92,-7.08,-37.94,
72161.1,0.05,0.15,0.73,-0.04,0.16,0.07,23.35,-6.16,-37.20,
72161.2,0.06,0.15,0.72,-0.07,0.12,0.09,21.26,-6.16,-36.68,
72161.3,0.07,0.16,0.69,-0.14,0.16,0.09,27.14,1.77,-34.46,
72161.4,0.08,0.17,0.69,-0.16,0.23,0.07,28.29,10.46,-30.94,
72161.5,0.08,0.18,0.67,-0.21,0.31,0.04,21.10,-6.60,-36.90,
72161.6,0.08,0.18,0.65,-0.26,0.38,0.01,22.08,-4.22,-36.14,
72161.7,0.05,0.16,0.66,-0.31,0.42,-0.03,26.09,29.07,-16.20,
72161.8,0.03,0.15,0.67,-0.37,0.45,-0.06,21.98,-6.45,-37.47,
72161.9,0.02,0.14,0.67,-0.41,0.47,-0.09,22.92,-6.07,-37.28,
72162.1,-0.12,-0.85,1.03,0.67,0.30,-0.23,25.26,34.62,-2.95,
72162.2,-0.22,-0.95,1.03,-0.54,0.09,0.03,25.03,35.71,2.68,
72162.3,-0.26,-0.92,0.86,-0.01,0.01,-0.01,24.74,36.51,2.78,
72162.4,-0.30,-0.92,0.81,-0.02,-0.05,0.02,25.07,34.93,-2.06,
72162.5,-0.36,-0.96,0.81,-1.04,1.65,0.24,25.26,33.95,3.58,
72162.6,-0.45,-0.85,0.45,-1.03,1.76,0.22,24.57,34.90,0.40,
72162.7,-0.13,-0.80,1.08,-0.31,1.55,0.06,25.84,34.23,-4.10,
72162.8,-0.43,-0.76,0.35,0.68,0.61,-0.14,23.84,36.23,3.56,
72162.9,-0.42,-0.74,0.26,0.03,-0.01,-0.01,24.74,33.48,2.08,
72163.1,-0.36,-0.83,0.40,-0.03,-0.06,0.04,24.92,34.96,4.24,
72163.2,-0.36,-0.83,0.40,0.01,-0.00,-0.01,25.09,35.80,2.77,
72163.3,-0.36,-0.83,0.39,-0.00,0.01,0.00,24.59,34.62,2.28,
72163.4,-0.37,-0.83,0.39,-0.00,-0.01,0.00,25.05,34.22,3.06,
72163.5,-0.36,-0.83,0.40,-0.03,-0.07,0.05,26.29,34.62,3.26,
72163.6,-0.36,-0.83,0.40,-0.02,-0.07,0.05,24.59,34.29,1.62,
72163.7,-0.35,-0.83,0.40,-0.01,-0.07,0.04,24.59,34.29,1.62,
72163.8,-0.36,-0.83,0.39,0.02,-0.04,0.03,25.16,36.07,2.84,
72163.9,-0.35,-0.83,0.39,0.02,-0.02,0.02,23.92,35.63,2.93,
72164.1,-0.36,-0.83,0.40,-0.00,-0.00,0.01,24.42,34.12,1.79,
72164.2,-0.36,-0.83,0.40,-0.00,-0.00,0.01,23.92,35.97,1.95,
72164.3,-0.36,-0.82,0.40,0.01,0.04,-0.01,25.37,34.47,2.45,
72164.4,-0.36,-0.82,0.40,-0.00,0.00,0.02,25.32,35.86,2.27,
72164.5,-0.37,-0.83,0.40,-0.00,0.00,0.02,23.92,35.63,3.58,
72164.6,-0.37,-0.82,0.40,0.00,-0.01,0.01,26.09,35.80,2.44,
72164.7,-0.36,-0.83,0.39,0.00,-0.03,0.01,26.43,36.14,1.79,
72164.8,-0.36,-0.83,0.40,0.01,-0.03,0.01,25.59,34.62,3.91,
72164.9,-0.36,-0.83,0.40,0.01,-0.03,0.01,25.75,34.79,3.43,
72165.1,-0.36,-0.83,0.40,0.00,-0.02,0.01,25.92,34.96,4.57,
72165.2,-0.37,-0.83,0.40,0.00,-0.02,0.01,25.59,35.63,1.62,
72165.3,-0.36,-0.83,0.40,-0.00,0.01,-0.01,25.19,36.00,2.98,
72165.4,-0.36,-0.82,0.40,-0.01,-0.01,0.00,25.28,34.89,3.42,
72165.5,-0.36,-0.83,0.41,0.00,-0.02,0.01,24.99,34.56,3.65,
72165.6,-0.36,-0.82,0.40,-0.01,-0.03,0.01,25.04,36.08,2.78,
72165.7,-0.36,-0.82,0.40,-0.00,-0.02,-0.00,23.42,34.12,3.09,
72165.8,-0.41,-0.80,0.47,-0.03,-0.50,0.06,26.00,35.44,3.18,
72165.9,-0.35,-0.82,0.41,-0.00,-0.00,-0.00,23.76,34.03,3.09,
72166.1,-0.44,-0.91,0.93,1.39,-0.68,0.64,26.93,30.92,-9.17,
72166.2,-0.48,-0.89,0.89,1.56,-0.57,0.76,25.59,33.61,-3.61,
72166.3,-0.48,-0.88,0.89,2.14,-1.26,1.22,26.56,33.29,-5.82,
72166.4,-0.47,-0.85,0.89,1.87,-0.87,1.03,28.10,7.88,-31.56,
72166.5,-0.41,-0.89,0.96,1.53,-0.64,0.83,27.67,-1.27,-34.74,
72166.6,-0.42,-0.89,0.94,1.27,-0.74,0.61,26.24,34.12,-3.26,
72166.7,-0.45,-0.82,0.92,1.81,-0.74,1.02,22.75,-9.94,-35.81,
72166.8,-0.43,-0.81,0.92,1.33,-0.71,0.62,26.93,32.60,-7.53,
72166.9,-0.43,-0.81,0.92,1.94,-0.75,1.02,26.93,32.04,-8.08,
72167.1,0.07,0.38,0.99,0.01,-0.27,-0.09,21.44,-9.94,-38.08,
72167.2,0.06,0.37,0.99,0.02,-0.22,-0.09,22.59,-10.04,-36.58,
72167.3,0.06,0.36,0.99,0.04,-0.14,-0.09,22.59,-9.17,-36.02,
72167.4,0.05,0.34,0.97,0.06,-0.06,-0.09,20.06,-8.73,-37.28,
72167.5,0.03,0.32,0.95,0.07,-0.00,-0.09,22.49,-9.28,-36.16,
72167.6,0.01,0.31,0.95,0.08,0.04,-0.08,22.25,-9.77,-36.63,
72167.7,0.07,0.37,0.96,0.02,0.26,-0.08,17.99,-9.61,-38.64,
72167.8,0.07,0.38,0.97,0.01,0.33,-0.04,21.66,-9.89,-37.67,
72167.9,-0.01,0.34,0.91,0.02,-0.30,-0.10,21.92,-9.10,-38.27,
72168.0,0.10,0.15,0.66,-1.10,0.31,-0.13,21.92,-7.08,-36.63,
72168.1,0.08,0.14,0.67,-1.14,0.32,-0.16,21.91,-7.10,-36.61,
72168.2,-0.25,-0.25,0.91,-1.92,0.79,-1.13,21.75,-7.59,-36.14,
72168.3,0.07,0.15,0.71,-1.98,0.53,-1.16,21.89,-6.16,-36.42,
72168.4,0.05,0.12,0.76,-1.17,0.35,-0.19,27.09,24.03,-24.37,
72168.5,0.05,0.09,0.82,-1.44,0.51,-0.43,22.08,-4.22,-36.79,
72168.6,0.05,0.06,0.84,-1.48,0.54,-0.50,22.22,-4.64,-35.86,
72168.7,0.07,0.02,0.85,-1.49,0.58,-0.59,23.66,34.99,-4.83,
72168.8,0.10,0.15,0.66,-1.49,0.65,-0.68,22.25,-4.73,-35.65,
72168.9,0.09,0.15,0.65,-1.49,0.76,-0.77,22.59,36.64,3.26,
72169.1,-0.25,-0.84,0.35,-0.21,-0.15,0.26,22.93,36.33,2.61,
72169.2,-0.26,-0.83,0.33,-0.13,-0.21,0.25,23.40,36.03,2.59,
72169.3,-0.27,-0.87,0.41,-0.01,-0.03,0.09,22.01,36.05,3.83,
72169.4,-0.26,-0.85,0.41,0.03,0.04,0.01,23.22,36.92,3.46,
72169.5,-0.24,-0.86,0.43,-0.34,-0.06,0.29,22.93,35.64,3.58,
72169.6,-0.22,-0.88,0.48,-0.43,-0.02,0.32,21.59,37.25,2.59,
72169.7,-0.20,-0.89,0.50,-0.39,-0.01,0.30,23.25,36.30,3.58,
72169.8,-0.20,-0.89,0.51,-0.31,-0.03,0.22,22.87,35.44,2.33,
72169.9,-0.19,-0.88,0.50,-0.24,-0.04,0.15,22.75,35.80,2.44,
72170.1,-0.26,-0.83,0.39,0.16,-0.11,0.16,24.62,35.06,2.88,
72170.2,-0.26,-0.82,0.40,0.04,-0.03,0.08,23.09,35.46,2.77,
72170.3,-0.28,-0.82,0.42,-0.09,0.15,-0.11,25.26,35.63,3.26,
72170.4,-0.30,-0.83,0.42,-0.09,0.17,-0.13,23.75,35.46,1.79,
72170.5,-0.31,-0.84,0.41,0.03,-0.01,0.04,24.26,34.96,1.62,
72170.6,-0.32,-0.84,0.41,-0.08,0.12,-0.10,25.09,35.46,3.42,
72170.7,-0.33,-0.84,0.41,-0.07,0.18,-0.16,24.90,35.46,2.31,
72170.8,-0.33,-0.84,0.40,-0.02,0.15,-0.18,24.85,35.21,2.11,
72170.9,-0.33,-0.84,0.39,-0.01,0.13,-0.18,24.76,35.46,1.46,
72171.1,-0.32,-0.85,0.39,-0.00,-0.03,0.02,24.92,34.29,1.30,
72171.2,-0.31,-0.85,0.39,-0.02,0.00,0.00,25.49,35.93,1.69,
72171.3,-0.31,-0.85,0.39,0.02,0.08,-0.02,24.54,34.92,1.92,
72171.4,-0.31,-0.85,0.40,0.02,0.04,0.01,23.92,35.97,2.28,
72171.5,-0.31,-0.84,0.38,-0.00,-0.03,0.01,23.09,34.79,3.09,
72171.6,-0.31,-0.85,0.38,-0.00,-0.03,0.01,24.24,36.71,2.58,
72171.7,-0.30,-0.85,0.40,-0.00,-0.03,0.01,24.42,37.14,2.77,
72171.8,-0.30,-0.85,0.40,0.05,0.15,-0.01,26.09,34.45,1.13,
72171.9,-0.30,-0.85,0.40,-0.01,0.07,-0.08,25.32,35.68,2.33,
72172.1,-0.28,-0.83,0.38,-0.01,-0.12,0.05,24.01,34.79,2.26,
72172.2,-0.33,-0.86,0.41,0.01,-0.11,0.02,25.76,34.45,3.09,
72172.3,-0.29,-0.86,0.39,0.02,-0.18,0.06,24.42,35.46,2.44,
72172.4,-0.34,-0.84,0.41,0.02,-0.17,0.06,24.92,36.30,2.93,
72172.5,-0.34,-0.84,0.40,0.01,-0.16,0.06,24.42,35.46,2.11,
72172.6,-0.31,-0.86,0.39,0.00,-0.14,0.05,24.59,35.30,1.62,
72172.7,-0.28,-0.84,0.38,-0.05,0.09,-0.01,24.71,35.48,1.99,
72172.8,-0.28,-0.84,0.38,0.02,-0.09,0.04,25.26,35.63,1.95,
72172.9,-0.28,-0.83,0.38,-0.01,0.01,0.02,25.26,36.30,3.58,
72173.1,-0.27,-0.78,0.33,-0.03,-0.10,-0.09,24.76,34.45,3.09,
72173.2,-0.40,-0.90,0.44,0.15,-0.15,0.03,23.99,34.28,3.06,
72173.3,-0.29,-0.86,0.37,0.18,-0.12,0.06,25.36,35.06,3.37,
72173.4,-0.23,-0.84,0.39,0.18,-0.07,0.09,24.26,33.95,3.91,
72173.5,-0.35,-0.87,0.40,0.16,-0.01,0.10,24.60,35.62,2.52,
72173.6,-0.32,-0.88,0.42,0.12,0.04,0.10,25.09,34.46,2.45,
72173.7,-0.25,-0.79,0.32,0.00,-0.06,0.01,23.42,35.46,2.44,
72173.8,-0.25,-0.78,0.32,-0.01,0.06,-0.04,25.50,35.15,3.11,
72173.9,-0.26,-0.78,0.32,-0.05,-0.08,-0.10,24.13,34.92,2.79,
72174.1,-0.30,-0.86,0.39,0.01,0.02,-0.01,23.96,35.01,2.98,
72174.2,-0.30,-0.86,0.39,0.01,0.02,-0.01,24.42,36.14,2.44,
72174.3,-0.31,-0.86,0.38,0.01,0.02,-0.01,23.59,35.63,4.57,
72174.4,-0.31,-0.86,0.39,0.01,0.01,-0.02,24.46,35.76,2.49,
72174.5,-0.32,-0.86,0.37,0.01,-0.00,-0.02,24.09,34.79,2.44,
72174.6,-0.31,-0.86,0.38,-0.00,0.02,-0.01,24.76,35.80,1.79,
72174.7,-0.31,-0.86,0.37,0.00,0.02,-0.01,25.25,33.89,-6.28,
72174.8,-0.30,-0.86,0.39,2.80,-0.36,0.99,27.43,29.75,-15.54,
72174.9,-0.31,-0.86,0.37,0.01,-0.01,-0.02,23.75,35.46,2.11,
72175.1,-0.28,-0.18,0.64,2.14,-0.89,1.13,28.10,-1.53,-33.20,
72175.2,-0.25,-0.12,0.63,2.09,-0.95,1.10,29.93,7.72,-29.44,
72175.3,-0.24,-0.10,0.60,2.51,-0.81,1.26,29.99,8.91,-29.16,
72175.4,-0.23,-0.06,0.56,2.47,-0.79,1.25,23.09,-11.29,-36.14,
72175.5,-0.28,-0.16,0.64,2.42,-0.78,1.23,20.92,-11.79,-35.98,
72175.6,-0.27,-0.15,0.65,2.30,-0.79,1.20,29.77,4.79,-32.80,
72175.7,-0.18,0.06,0.59,2.25,-0.80,1.18,28.48,2.91,-33.50,
72175.8,0.05,0.40,0.90,2.17,-0.86,1.14,21.92,-11.00,-36.12,
72175.9,-0.13,0.09,0.59,-0.01,-0.04,0.01,28.34,1.62,-33.43,
72176.1,0.07,0.37,0.88,-0.14,-0.19,-0.16,21.35,-11.01,-36.04,
72176.2,0.07,0.37,0.88,-0.07,-0.09,-0.01,20.46,-10.90,-37.03,
72176.3,0.08,0.37,0.87,-0.07,-0.07,-0.02,21.58,-10.11,-36.63,
72176.4,0.07,0.38,0.87,-0.09,-0.06,-0.12,21.58,-10.95,-36.22,
72176.5,0.06,0.39,0.88,-0.09,-0.06,-0.14,23.61,-8.46,-36.36,
72176.6,0.06,0.40,0.89,-0.12,-0.11,-0.16,21.58,-12.13,-35.65,
72176.7,0.07,0.37,0.89,-1.98,0.54,-1.21,26.38,6.34,-34.41,
72176.8,0.05,0.37,0.95,-2.64,0.52,-1.34,22.75,-10.95,-37.45,
72176.9,0.05,0.36,0.96,-2.74,0.16,-0.97,22.75,-10.95,-37.45,
72177.1,-0.15,-0.88,0.98,-1.76,-0.27,-0.93,23.09,35.80,-14.56,
72177.2,-0.16,-0.90,0.98,-1.63,-0.31,-1.01,19.85,37.99,-4.37,
72177.3,-0.16,-0.91,0.97,-1.51,-0.26,-1.00,22.05,35.91,-12.20,
72177.4,-0.18,-0.91,0.95,-1.84,0.09,-0.86,21.58,35.97,-11.13,
72177.5,-0.19,-0.90,0.91,-1.82,0.02,-0.86,22.42,36.14,5.38,
72177.6,-0.21,-0.90,0.88,-1.81,-0.11,-0.86,20.97,36.89,-11.43,
72177.7,-0.20,-0.90,0.87,-1.80,-0.17,-0.86,21.58,36.98,4.24,
72177.8,-0.16,-0.87,0.96,-1.04,0.55,-0.33,23.09,36.47,3.75,
72177.9,-0.16,-0.88,0.96,-1.01,0.61,-0.26,22.64,34.22,-15.00,
72178.1,-0.30,-0.86,0.35,0.03,-0.06,0.01,21.58,34.96,4.24,
72178.2,-0.29,-0.87,0.35,0.03,-0.07,0.00,23.18,35.93,3.92,
72178.3,-0.29,-0.87,0.36,0.03,-0.09,-0.03,22.79,36.76,4.43,
72178.4,-0.29,-0.87,0.35,-0.02,0.02,0.10,23.25,35.64,2.81,
72178.5,-0.30,-0.86,0.35,0.01,-0.09,-0.05,23.23,35.84,3.94,
72178.6,-0.30,-0.87,0.37,-0.02,-0.07,-0.07,23.09,35.13,4.08,
72178.7,-0.30,-0.87,0.37,-0.04,-0.06,-0.07,22.84,35.87,3.99,
72178.8,-0.30,-0.87,0.36,-0.04,-0.05,-0.06,24.42,35.75,3.84,
72178.9,-0.30,-0.86,0.36,-0.04,-0.04,-0.06,22.59,36.64,3.91,
72179.1,-0.31,-0.84,0.36,-0.03,-0.11,0.07,23.64,34.65,3.59,
72179.2,-0.31,-0.85,0.36,-0.01,-0.10,0.08,23.75,34.79,1.79,
72179.3,-0.30,-0.85,0.36,-0.02,-0.10,0.08,23.61,35.84,3.56,
72179.4,-0.30,-0.85,0.37,-0.07,-0.10,0.03,24.09,35.13,3.75,
72179.5,-0.30,-0.85,0.38,-0.08,-0.09,0.01,24.92,35.30,3.91,
72179.6,-0.31,-0.85,0.39,-0.00,0.02,0.01,23.59,35.94,3.92,
72179.7,-0.31,-0.86,0.39,0.01,-0.01,-0.00,23.92,35.63,3.91,
72179.8,-0.31,-0.86,0.39,-0.08,-0.09,-0.01,24.86,35.69,3.69,
72179.9,-0.31,-0.86,0.38,-0.03,-0.06,-0.04,24.30,36.29,4.61,
72181.5,-0.31,-0.87,0.37,0.05,-0.10,0.05,23.59,35.63,4.24,
72181.6,-0.33,-0.87,0.37,-0.06,-0.00,-0.11,23.73,35.78,3.24,
72181.7,-0.32,-0.86,0.38,-0.03,0.02,-0.06,23.25,35.04,3.38,
72181.8,-0.28,-0.85,0.38,0.15,0.10,-0.04,25.06,36.46,3.76,
72181.9,-0.27,-0.77,0.31,0.01,-0.03,-0.19,24.56,35.32,3.08,
72182.1,-0.33,-0.86,0.35,0.01,0.07,0.01,23.25,34.29,2.60,
72182.2,-0.34,-0.87,0.36,0.07,-0.08,0.05,25.03,35.31,2.85,
72182.3,-0.34,-0.87,0.36,0.04,-0.06,0.01,23.53,34.94,2.88,
72182.4,-0.33,-0.87,0.36,0.00,0.08,0.00,24.38,35.30,3.38,
72182.5,-0.33,-0.87,0.37,-0.08,0.10,-0.10,24.59,35.63,3.26,
72182.6,-0.33,-0.87,0.38,-0.10,0.10,-0.11,23.77,35.46,3.09,
72182.7,-0.32,-0.87,0.38,-0.10,0.10,-0.11,23.92,35.97,3.58,
72182.8,-0.31,-0.87,0.38,-0.10,0.09,-0.11,22.54,35.86,3.95,
72182.9,-0.29,-0.86,0.39,-0.09,-0.05,-0.04,24.58,35.69,3.13,
72183.1,-0.40,-0.86,0.66,0.95,-0.69,0.28,23.98,35.52,2.44,
72183.2,-0.38,-0.86,0.67,2.10,-0.69,0.70,25.76,35.13,-3.77,
72183.3,-0.40,-0.87,0.65,0.09,-1.24,-0.08,23.92,35.30,2.28,
72183.4,-0.35,-0.88,0.81,0.19,-1.38,-0.09,24.26,36.64,3.26,
72183.5,-0.34,-0.92,0.89,0.06,-1.21,-0.08,26.26,11.42,-30.74,
72183.6,-0.34,-0.93,0.91,0.42,-1.24,-0.07,23.09,36.47,2.11,
72183.7,-0.35,-0.96,0.93,0.58,-1.08,-0.02,23.42,36.40,2.05,
72183.8,-0.36,-0.96,0.93,0.73,-0.91,0.06,22.25,-7.75,-35.98,
72183.9,-0.38,-0.95,0.92,0.86,-0.77,0.16,24.76,36.14,1.79,
72184.1,0.00,0.23,1.05,0.16,0.13,-0.02,23.25,-8.43,-35.00,
72184.2,0.02,0.29,1.05,0.18,0.03,-0.06,25.09,-8.95,-36.24,
72184.3,0.05,0.39,0.99,0.01,-0.03,-0.06,23.60,-7.94,-35.87,
72184.4,-0.02,0.19,1.06,-0.02,-0.09,-0.00,23.61,-8.64,-35.44,
72184.5,-0.01,0.21,1.06,-0.07,-0.12,0.02,22.62,-8.98,-36.52,
72184.6,0.04,0.46,0.98,0.12,0.21,-0.00,22.59,-7.75,-35.32,
72184.7,0.00,0.42,1.00,0.13,-0.03,-0.11,23.75,-8.26,-36.47,
72184.8,-0.02,0.38,0.99,0.12,0.04,-0.09,23.53,-7.98,-36.28,
72184.9,-0.04,0.32,0.99,0.10,0.07,-0.04,24.46,-6.76,-36.87,
72185.1,0.04,-0.07,0.81,-1.78,0.27,-0.54,22.73,0.85,-35.95,
72185.2,0.02,-0.09,0.84,-1.80,0.30,-0.64,24.26,15.45,-32.71,
72185.3,-0.00,-0.13,0.88,-2.24,0.18,-0.60,22.08,1.49,-37.12,
72185.4,-0.02,-0.15,0.88,-1.82,0.19,-0.38,23.32,3.49,-37.12,
72185.5,-0.02,-0.19,0.93,-1.83,0.29,-0.73,23.23,34.18,-14.07,
72185.6,0.02,-0.09,0.80,-1.79,0.44,-0.80,23.75,4.18,-37.12,
72185.7,0.01,-0.09,0.80,-1.77,0.19,-0.47,23.25,0.32,-35.00,
72185.8,-0.08,-0.26,0.95,-1.77,0.24,-0.50,21.75,36.14,6.36,
72185.9,-0.11,-0.25,0.94,-1.75,0.76,-0.79,19.75,36.81,2.44,
72186.1,-0.22,-0.86,0.41,-0.12,-0.33,0.11,21.25,37.65,2.93,
72186.2,-0.23,-0.87,0.40,0.06,-0.18,-0.13,21.38,38.13,3.71,
72186.3,-0.25,-0.87,0.36,0.09,-0.11,-0.15,20.80,36.47,4.13,
72186.4,-0.27,-0.86,0.34,0.10,-0.04,-0.16,21.08,36.47,4.40,
72186.5,-0.28,-0.86,0.31,-0.01,-0.03,0.01,20.58,36.98,4.89,
72186.6,-0.29,-0.85,0.31,-0.02,-0.05,0.00,21.14,36.44,4.46,
72186.7,-0.20,-0.85,0.43,0.08,0.02,-0.15,21.75,36.14,5.06,
72186.8,-0.20,-0.86,0.42,-0.06,0.01,-0.09,21.41,36.84,4.15,
72186.9,-0.29,-0.85,0.32,-0.09,-0.03,-0.08,21.54,36.76,4.18,
72187.1,-0.26,-0.89,0.36,-0.00,0.02,0.01,21.36,37.32,4.47,
72187.2,-0.26,-0.88,0.36,-0.00,0.02,0.00,20.43,36.49,4.13,
72187.3,-0.26,-0.88,0.35,-0.00,-0.01,-0.00,21.29,38.37,4.19,
72187.4,-0.26,-0.88,0.36,-0.00,-0.01,-0.00,20.08,36.14,3.75,
72187.5,-0.26,-0.89,0.37,-0.01,0.00,0.01,20.58,36.64,4.57,
72187.6,-0.26,-0.88,0.36,0.01,-0.03,0.01,20.58,36.64,4.57,
72187.7,-0.26,-0.88,0.35,-0.01,0.00,0.00,21.13,37.65,3.38,
72187.8,-0.26,-0.89,0.36,-0.00,-0.02,-0.00,20.99,37.26,4.97,
72187.9,-0.26,-0.88,0.36,-0.00,-0.02,-0.00,21.25,37.65,5.22,
72188.1,-0.26,-0.88,0.36,0.01,0.00,-0.01,20.91,36.85,3.33,
72188.2,-0.26,-0.87,0.36,0.01,-0.00,-0.01,22.92,37.31,6.20,
72188.3,-0.25,-0.88,0.36,-0.24,-0.21,0.11,21.54,37.40,4.12,
72188.4,-0.26,-0.88,0.37,0.02,-0.05,0.02,22.47,37.46,5.96,
72188.5,-0.26,-0.88,0.36,0.40,0.12,-0.12,21.42,37.82,5.38,
72188.6,-0.24,-0.86,0.40,0.40,-0.06,-0.25,20.23,38.34,0.64,
72188.7,-0.26,-0.88,0.36,0.22,-0.07,0.06,21.33,37.20,4.78,
72188.8,-0.26,-0.88,0.36,0.03,-0.05,0.03,21.25,36.64,4.24,
72188.9,-0.26,-0.88,0.37,0.01,-0.05,0.05,20.39,38.01,-2.44,
72189.1,-0.17,-0.78,0.51,0.89,-0.17,-0.25,18.74,37.82,-4.43,
72189.2,-0.19,-0.80,0.53,1.91,0.23,-0.09,20.32,39.69,-5.40,
72189.3,-0.19,-0.76,0.57,0.28,-0.09,-0.17,17.07,35.80,-15.87,
72189.4,-0.20,-0.78,0.58,0.25,-0.03,-0.14,13.57,38.07,-17.46,
72189.5,-0.18,-0.72,0.60,0.35,0.12,-0.00,20.58,39.97,-5.57,
72189.6,-0.17,-0.67,0.57,-0.47,-2.17,2.98,18.74,33.11,-20.77,
72189.7,-0.16,-0.65,0.51,1.45,-1.34,5.17,20.58,39.33,-5.57,
72189.8,-0.19,-0.72,0.48,0.42,0.04,-0.00,30.94,3.01,-30.42,
72189.9,-0.18,-0.72,0.50,0.67,-0.13,-0.27,20.26,39.19,-5.34,
72190.1,-0.20,-0.08,0.92,0.06,-0.45,3.42,23.55,-19.20,-32.38,
72190.2,-0.06,-0.13,0.60,1.36,1.07,3.95,22.25,-19.53,-32.38,
72190.3,-0.31,0.25,0.97,-0.56,1.08,1.12,2.38,-31.13,-29.93,
72190.4,-0.15,0.28,1.15,0.62,0.36,1.71,21.95,-19.73,-32.38,
72190.5,-0.08,0.02,1.11,-0.40,-0.53,1.99,21.25,-20.20,-32.38,
72190.6,-0.08,0.02,1.06,0.86,0.63,1.80,-1.82,-24.24,-35.00,
72190.7,-0.07,0.06,1.08,-0.22,-0.09,3.77,19.38,-20.76,-32.70,
72190.8,-0.05,0.03,1.05,0.76,0.52,1.74,18.41,-21.04,-32.87,
