Clock Time (s),Elapsed Time (s),ax,ay,az,gx,gy,gz,mr,mtheta,mphi,
72117.1,0.0,-0.13,-0.91,0.35,0.09,0.00,-0.02,43.29970554172396,1.2265901302334454,1.400457619274305,
72117.2,0.09999999999126885,-0.16,-0.93,0.29,0.11,0.06,-0.01,43.871396148287786,1.239016091883276,1.3950640582482707,
72117.3,0.19999999999708962,-0.16,-0.94,0.30,0.00,0.06,-0.01,43.07584473925032,1.2415943454831242,1.3986212016804385,
72117.4,0.29999999998835847,-0.16,-0.93,0.29,0.03,0.02,-0.02,42.82695879933572,1.2469461953994116,1.3957138568978993,
72117.5,0.39999999999417923,-0.15,-0.93,0.30,0.09,0.07,-0.01,42.24867453542182,1.2512499187110002,1.3961770050558397,
72117.6,0.5,-0.15,-0.92,0.30,-0.07,-0.15,-0.11,43.704984841548686,1.2319830862676477,1.3685275028352337,
72117.7,0.5999999999912689,-0.13,-0.93,0.01,-0.07,0.06,-0.06,43.1644124250522,1.238966066344249,1.4189312236873282,
72117.8,0.6999999999970896,-0.16,-0.93,0.29,0.08,0.12,-0.04,42.73685645903311,1.2212124804719022,1.3903482600587012,
72117.9,0.7999999999883585,-0.16,-0.95,0.30,-0.07,0.27,0.14,43.4828816892349,1.2188102212608798,1.3911404403065621,
72118.1,1.0,-0.13,-0.92,0.30,-0.05,0.05,0.03,44.27654006355962,1.2196982784250678,1.3628715083301233,
72118.2,1.0999999999912689,-0.14,-0.91,0.29,-0.05,0.10,0.01,43.54618123326086,1.214909075692418,1.36426146106401,
72118.3,1.1999999999970896,-0.15,-0.92,0.28,-0.06,0.14,-0.00,43.14359396248764,1.2173733473030695,1.3658583263487878,
72118.4,1.2999999999883585,-0.16,-0.92,0.27,-0.07,0.15,-0.02,43.896161563398685,1.2265901302334454,1.3341776647919439,
72118.5,1.3999999999941792,-0.17,-0.93,0.27,-0.04,-0.06,0.07,43.60630344342432,1.2240491252009085,1.3596276857194498,
72118.6,1.5,-0.19,-0.93,0.27,-0.04,-0.05,0.06,42.4543955321472,1.1728378305952079,1.3356802659587923,
72118.7,1.5999999999912689,-0.23,-0.93,0.32,-0.05,-0.02,0.05,44.68365025375613,1.263506080407786,1.3647932915002694,
72118.8,1.6999999999970896,-0.19,-0.93,0.28,-0.08,0.13,-0.03,42.297003439960136,1.2079959201226205,1.3805113922675933,
72118.9,1.7999999999883585,-0.13,-0.92,0.30,-0.05,0.02,0.04,44.558542390881684,1.2510035684611434,1.364206533676593,
72119.1,2.0,-0.40,-1.10,0.91,2.66,-0.79,1.58,43.40461841785964,1.0423901594130136,1.5866939222666814,
72119.2,2.099999999991269,-0.51,-1.17,0.81,2.62,-0.85,1.57,44.91595818859929,0.681017010447118,2.063861788909289,
72119.3,2.1999999999970896,-0.51,-1.17,0.82,2.82,-0.53,1.69,44.090249488974315,1.0186502436450773,1.6266199650691333,
72119.4,2.2999999999883585,-0.42,-1.04,0.93,1.04,-0.42,0.69,43.395483635972994,1.004350958256103,1.6575500683165723,
72119.5,2.3999999999941792,-0.49,-1.16,0.88,0.39,-0.72,0.29,42.14416922896927,0.9737387739827841,1.723005768493162,
72119.6,2.5,-0.45,-1.14,0.93,2.85,-0.49,1.69,43.885311893616525,6.0172461600105915,2.529189948215703,
72119.7,2.599999999991269,-0.43,-1.13,0.93,3.04,-0.45,1.69,42.91609837811448,0.9623077562870066,1.7651858646257856,
72119.8,2.6999999999970896,-0.42,-1.11,0.93,3.06,-0.44,1.70,43.58491596871559,0.9532022590280024,1.798054767552992,
72119.9,2.7999999999883585,-0.45,-0.91,0.76,3.08,-0.47,1.72,44.05499290659346,5.9146056372521505,2.523336766200062,
72120.1,3.0,-0.04,0.38,0.97,-0.10,-0.10,-0.06,43.09557865953305,5.969861166344326,2.5186210816431074,
72120.2,3.099999999991269,-0.00,0.36,0.94,-0.13,-0.02,-0.08,43.621303281768185,5.96084128104253,2.4845712437801803,
72120.3,3.1999999999970896,-0.00,0.39,0.90,-0.00,-0.04,0.02,43.11478052825968,5.905535018969146,2.5128563572807066,
72120.4,3.2999999999883585,-0.08,0.39,0.91,-0.11,-0.06,-0.07,44.66236223040604,5.894323532427456,2.489192251226665,
72120.5,3.3999999999941792,-0.02,0.37,0.86,-0.02,-0.04,0.02,43.19726032979406,5.8885363783559,2.4649494683087108,
72120.6,3.5,-0.10,0.36,0.90,-0.03,-0.17,-0.01,42.120892678099786,5.907300503171063,2.4848841272132023,
72120.7,3.599999999991269,-0.04,0.37,0.95,-0.01,0.01,0.06,42.675400408197696,5.886116870684527,2.455902455734948,
72120.8,3.6999999999970896,-0.05,0.37,0.95,0.01,0.01,0.03,43.52351778062063,5.885585961360236,2.508549289623852,
72120.9,3.7999999999883585,-0.05,0.38,0.94,0.00,-0.10,-0.02,43.99495652912956,5.908297253145364,2.5154945873087065,
72121.1,4.0,-0.01,0.22,0.61,0.06,0.03,-0.00,44.227450751767286,5.916878274646734,2.475372561917917,
72121.2,4.099999999991269,0.04,0.23,0.60,0.06,0.03,0.00,43.59066987326531,5.948887148784309,2.4964669655523952,
72121.3,4.19999999999709,-0.02,0.13,0.82,-0.01,0.08,0.07,42.604435215127545,6.040570219961696,2.5544778505193593,
72121.4,4.2999999999883585,-0.13,-0.04,0.96,-1.51,0.56,-1.00,44.43831117403091,5.9155427722187275,2.4722556790324437,
72121.5,4.399999999994179,-0.18,-0.28,1.08,-1.77,0.03,-1.07,43.693763857099796,5.961308442312478,2.531452562370394,
72121.6,4.5,-0.02,0.26,0.77,0.03,0.02,0.01,43.790621141975144,0.6608198049946741,2.3416174981342484,
72121.7,4.599999999991269,-0.04,0.23,0.75,-0.02,0.08,0.08,43.495220427076816,5.946903077180253,2.522391491125153,
72121.8,4.69999999999709,-0.01,0.22,0.63,-0.10,0.13,0.12,42.906323543272734,5.903609695173968,2.492477813780349,
72121.9,4.7999999999883585,-0.01,0.22,0.63,-0.19,0.12,0.12,44.23670534748265,0.9609238527809547,1.8728594039280397,
72122.1,5.0,-0.02,-0.89,0.96,-0.96,0.60,-0.22,43.538372730270936,1.0397470472306676,1.7516215024375699,
72122.2,5.099999999991269,-0.33,-0.86,0.27,-0.99,0.79,-0.24,43.69110779094529,0.9958034233342877,1.7402909237717874,
72122.3,5.19999999999709,-0.24,-0.90,0.29,-1.01,0.17,-0.24,41.671256280558666,1.0800177501594201,1.4924849255098063,
72122.4,5.2999999999883585,-0.14,-0.91,0.45,-0.97,0.70,-0.23,43.96460053270131,1.0199193330080831,1.6605342749429979,
72122.5,5.399999999994179,-0.25,-0.91,0.30,-1.11,0.22,-0.26,43.70436820273232,1.0185542513473056,1.6629081791156597,
72122.6,5.5,-0.34,-0.85,0.47,-1.27,0.68,-0.21,44.611427908104446,1.1021776722039993,1.4166383660722572,
72122.7,5.599999999991269,-0.20,-0.81,0.66,0.03,-0.07,0.02,43.466637781176495,1.0172186481964698,1.6652619783000002,
72122.8,5.69999999999709,-0.03,-0.83,1.00,-0.00,-0.01,-0.01,42.47073580714137,1.0219226773913543,1.629458571483795,
72122.9,5.7999999999883585,0.04,-0.83,1.03,-1.31,0.88,-0.17,42.967036202186435,1.1369624162001304,1.4412656269322819,
72123.1,6.0,-0.21,-0.91,0.33,0.01,0.03,-0.02,42.98079803819375,1.113762100276133,1.4380218569300407,
72123.2,6.099999999991269,-0.22,-0.91,0.33,0.01,0.03,-0.02,42.86684616343964,1.1307531019272783,1.4301313138212564,
72123.3,6.19999999999709,-0.21,-0.91,0.33,0.01,0.02,-0.02,42.223718453021164,1.1248592004784164,1.450669764404927,
72123.4,6.2999999999883585,-0.22,-0.91,0.33,-0.01,-0.01,0.01,43.352178722643224,1.1350295213479944,1.4158596816135718,
72123.5,6.399999999994179,-0.21,-0.91,0.33,0.01,0.02,-0.02,43.66996794136675,1.1244558706441625,1.4622709994928396,
72123.6,6.5,-0.21,-0.90,0.34,0.01,0.01,-0.02,43.878490174571866,1.1226235508842948,1.4664558460175359,
72123.7,6.599999999991269,-0.22,-0.90,0.33,0.00,0.00,-0.02,42.76257592802379,1.129812206283658,1.4458296236468484,
72123.8,6.69999999999709,-0.22,-0.90,0.34,0.00,-0.00,-0.02,43.933541855853136,1.117415297522359,1.4404585779443955,
72123.9,6.7999999999883585,-0.22,-0.91,0.33,-0.00,-0.01,-0.02,42.53901150708605,1.1053442403980027,1.4323636224354028,
72124.1,7.0,-0.23,-0.91,0.33,0.02,0.01,0.00,43.54262968632005,1.1088055455210843,1.4429873523532684,
72124.2,7.099999999991269,-0.22,-0.90,0.34,0.02,0.01,0.01,42.95498806890767,1.135220004424718,1.432067476604402,
72124.3,7.19999999999709,-0.22,-0.90,0.33,0.02,0.01,0.01,43.09164420163148,1.124654005710084,1.4301668699467456,
72124.4,7.2999999999883585,-0.22,-0.90,0.33,0.01,0.01,0.01,42.78822501576806,1.1211906625102117,1.4291629426802603,
72124.5,7.399999999994179,-0.23,-0.90,0.34,0.01,0.01,0.01,42.514272897463506,1.122934649461569,1.4517315695753437,
72124.6,7.5,-0.22,-0.90,0.33,-0.01,0.00,-0.03,43.68135300102321,1.1117950447093436,1.4408562337204938,
72124.7,7.599999999991269,-0.23,-0.90,0.33,0.01,0.01,0.01,44.6815856925423,1.139174838214387,1.4611356141928364,
72124.8,7.69999999999709,-0.22,-0.90,0.33,0.01,0.00,0.01,42.70418480664395,1.133583594972932,1.4329024856279724,
72124.9,7.7999999999883585,-0.23,-0.90,0.34,0.01,-0.01,0.01,44.28132563508007,1.138006890062603,1.442854272033528,
72125.1,8.0,-0.22,-0.90,0.33,-0.00,0.01,0.00,43.448180629342815,1.1189640883410787,1.453607388948777,
72125.2,8.099999999991269,-0.21,-0.91,0.34,0.01,0.00,0.01,43.299554270223155,1.1210005554676121,1.4420330175827722,
72125.3,8.19999999999709,-0.21,-0.91,0.33,-0.01,-0.05,0.01,42.967036202186435,1.1369624162001304,1.4412656269322819,
72125.4,8.299999999988358,-0.22,-0.90,0.33,0.00,-0.03,0.02,43.86431123362135,1.1363578353670238,1.4153758254241326,
72125.5,8.39999999999418,-0.21,-0.90,0.34,0.01,-0.04,0.01,42.77987961647391,1.1383391896342976,1.4461160219881943,
72125.6,8.5,-0.21,-0.90,0.33,0.01,-0.01,0.01,42.44279561951592,1.140674678048072,1.4553259960849059,
72125.7,8.599999999991269,-0.21,-0.90,0.33,0.01,0.01,0.01,43.04662936862769,1.124654005710084,1.437757368213537,
72125.8,8.69999999999709,-0.22,-0.90,0.34,0.00,0.01,0.00,43.04662936862769,1.124654005710084,1.437757368213537,
72125.9,8.799999999988358,-0.21,-0.90,0.33,1.96,-0.68,1.61,43.52516168838434,1.0984189457987232,1.4201995698914367,
72126.1,9.0,-0.45,-0.51,0.80,2.51,-0.68,1.87,42.36066217612751,0.5507900355925164,2.035387345264721,
72126.2,9.099999999991269,-0.48,-0.76,0.83,2.09,-1.33,1.02,43.95234919773913,0.8073288442402365,1.8228166406709636,
72126.3,9.19999999999709,-0.48,-0.72,0.81,2.50,-0.68,1.88,43.55558517572689,0.8287337002407014,1.7805711393746926,
72126.4,9.299999999988358,-0.45,-0.63,0.85,2.52,-0.77,1.82,42.716195991684465,6.164877342680929,2.448850068056117,
72126.5,9.39999999999418,-0.44,-0.60,0.86,2.51,-1.05,1.69,44.49116541516978,0.6846208822548253,1.8694311348669863,
72126.6,9.5,-0.43,-0.58,0.83,2.52,-1.16,1.59,42.5695125647452,5.94375886273504,2.5177054465728275,
72126.7,9.599999999991269,-0.44,-0.57,0.83,2.51,-1.17,1.56,43.141887997629404,0.6712018299844562,1.972048850817743,
72126.8,9.69999999999709,-0.45,-0.55,0.81,2.50,-1.17,1.50,44.078721623930974,5.922081027778155,2.5363995837047106,
72126.9,9.799999999988358,-0.49,-0.74,0.81,2.46,-1.12,1.44,43.018641308158486,0.6582439226297436,1.9793360319171531,
72127.1,10.0,-0.12,0.34,0.86,0.12,-0.07,-0.04,43.29373857730469,5.921446909156706,2.4501379787231112,
72127.2,10.099999999991269,-0.07,0.35,0.91,-0.04,-0.05,0.03,44.965031969298096,5.972258275327071,2.4512747165118194,
72127.3,10.19999999999709,-0.08,0.37,0.90,-0.04,-0.18,0.02,43.58987955936561,5.972890880056265,2.472084443677558,
72127.4,10.299999999988358,-0.08,0.35,0.93,-0.01,0.16,-0.05,43.09441843208932,5.940110971153422,2.4735254746043336,
72127.5,10.39999999999418,-0.07,0.37,0.90,0.11,-0.05,-0.04,43.56394610225295,5.967841188141556,2.468774834079217,
72127.6,10.5,-0.07,0.35,0.87,0.11,-0.04,-0.04,43.48427186926326,5.941789119748996,2.4513372177255626,
72127.7,10.599999999991269,-0.07,0.34,0.90,0.06,0.10,-0.04,43.70988446564461,5.9762956544478065,2.4812021005806297,
72127.8,10.69999999999709,-0.07,0.35,0.90,0.05,0.16,-0.06,42.815460992496625,5.981151845661086,2.4704769134205993,
72127.9,10.799999999988358,-0.11,0.35,0.87,0.12,-0.08,-0.04,43.279780498519166,5.909547144532803,2.474812848052979,
72128.1,11.0,0.04,0.08,0.63,-1.34,0.37,-0.47,44.012932190436935,0.09589943151791132,2.4369167620001164,
72128.2,11.099999999991269,0.03,0.07,0.62,-1.68,0.79,-1.38,42.9017913378917,6.082518917350495,2.5314149398854284,
72128.3,11.19999999999709,0.01,0.06,0.60,-2.05,0.83,-1.56,43.860217737717626,0.568864219276376,2.262907149542825,
72128.4,11.299999999988358,0.05,0.12,0.68,-1.37,0.43,-0.51,43.16112718639308,6.07016360169149,2.5137439183275427,
72128.5,11.39999999999418,-0.06,0.08,0.76,-1.29,0.27,-0.39,43.54839836320045,0.9749609852630869,1.8840576574266068,
72128.6,11.5,0.04,0.10,0.65,-1.31,0.32,-0.43,42.9761201133839,1.0032004145465783,1.8253027122296774,
72128.7,11.599999999991269,-0.04,0.02,0.87,-1.68,0.40,-0.86,44.087753401596686,6.204099880321744,2.457941914487066,
72128.8,11.69999999999709,-0.04,-0.02,0.87,-1.68,0.40,-0.89,44.087753401596686,6.204099880321744,2.457941914487066,
72128.9,11.799999999988358,-0.05,-0.06,0.86,-1.66,0.53,-0.97,43.768943327432524,0.034886125383526506,2.4445651142859,
72129.1,12.0,-0.35,-0.90,0.24,-0.10,-0.12,0.03,42.948738048981134,1.0949057129608908,1.4719129178851564,
72129.2,12.099999999991269,-0.34,-0.89,0.24,-0.15,-0.19,0.09,43.697342024429815,1.085772593017552,1.480508038238916,
72129.3,12.19999999999709,-0.27,-0.90,0.30,-0.22,-0.34,0.15,42.789915868110796,1.073288321193381,1.4619108319205147,
72129.4,12.299999999988358,-0.23,-0.90,0.32,-0.07,-0.10,-0.01,44.185901597681585,1.0800239830183744,1.485825415189287,
72129.5,12.39999999999418,-0.21,-0.91,0.36,-0.00,-0.02,-0.01,43.41520240653036,1.0976556586299746,1.5124887755593084,
72129.6,12.5,-0.15,-0.89,0.42,-0.24,-0.38,0.16,41.761806713790534,1.0763181718117392,1.4936157804433638,
72129.7,12.599999999991269,-0.14,-0.90,0.43,-0.34,-0.35,0.18,43.15878010324203,1.1037251395110603,1.5218875893571568,
72129.8,12.69999999999709,-0.20,-0.92,0.47,-0.36,-0.16,0.18,43.84032618491792,1.099372347381925,1.4929354129956334,
72129.9,12.799999999988358,-0.18,-0.93,0.48,-0.34,-0.02,0.24,44.33307230499596,1.0852410851201515,1.4675295710868006,
72130.1,13.0,-0.23,-0.90,0.34,-0.00,-0.00,0.00,43.14944379711052,1.0754000914212416,1.4488239496343684,
72130.2,13.099999999991269,-0.23,-0.89,0.34,0.00,-0.01,0.01,43.48764537199042,1.114074387504702,1.469444738185659,
72130.3,13.19999999999709,-0.23,-0.89,0.34,0.00,0.00,0.01,43.220203608960475,1.1021560403268464,1.4688154095041963,
72130.4,13.299999999988358,-0.23,-0.89,0.34,0.00,-0.01,0.01,43.708892687873025,1.050335439247023,1.4510841002754726,
72130.5,13.39999999999418,-0.23,-0.89,0.34,0.00,0.01,0.01,42.06929997040597,1.0427562875626601,1.4660153670245102,
72130.6,13.5,-0.24,-0.89,0.34,-0.01,0.01,0.01,42.10313646273873,1.0617254383725134,1.4627558146701982,
72130.7,13.599999999991269,-0.24,-0.90,0.34,-0.01,0.01,0.01,42.62360496250874,1.103559206183609,1.4595959192825383,
72130.8,13.69999999999709,-0.23,-0.89,0.35,-0.01,0.01,0.00,42.1722728815984,1.0892191631613513,1.4584008311503824,
72130.9,13.799999999988358,-0.23,-0.90,0.35,0.01,-0.00,0.02,43.00906532348733,1.0781698086027447,1.4617661688678008,
72131.1,14.0,-0.24,-0.89,0.35,0.01,0.01,0.01,42.94250342027115,1.0829345375579003,1.457613111661383,
72131.2,14.099999999991269,-0.24,-0.89,0.36,0.00,0.00,0.01,43.58289343308909,1.0387440024757,1.4468065020908545,
72131.3,14.19999999999709,-0.25,-0.89,0.35,-0.02,0.01,-0.01,42.984041224621954,1.0632198000857342,1.449758520087332,
72131.4,14.299999999988358,-0.24,-0.89,0.36,0.01,0.04,-0.01,43.014812564975806,1.0437866786962624,1.4299140086420141,
72131.5,14.39999999999418,-0.25,-0.89,0.35,0.01,0.04,0.00,42.316904423646115,1.0755959599286449,1.4409325421327424,
72131.6,14.5,-0.25,-0.89,0.35,0.01,0.04,-0.01,42.02367190048961,1.060583581285144,1.4659011800551434,
72131.7,14.599999999991269,-0.24,-0.89,0.35,-0.00,0.01,-0.01,42.01584582035687,1.0908428999072508,1.4462356345114327,
72131.8,14.69999999999709,-0.24,-0.89,0.34,0.01,0.03,0.01,42.78417113840118,1.0848389792080397,1.4555455548807936,
72131.9,14.799999999988358,-0.25,-0.89,0.35,0.01,0.01,0.01,42.145240537930256,1.0479792005589752,1.4621481526023474,
72132.1,15.0,-0.24,-0.89,0.34,-0.02,-0.05,0.01,43.416164040596676,1.0747382768614284,1.4702033359129045,
72132.2,15.099999999991269,-0.24,-0.89,0.35,-0.02,-0.43,0.05,43.37051763583183,1.0862967913191581,1.4615187034043375,
72132.3,15.19999999999709,-0.24,-0.89,0.35,0.24,-0.50,0.16,42.859623190130826,1.0263943864975573,1.4679544135207538,
72132.4,15.299999999988358,-0.24,-0.89,0.35,0.01,-0.01,0.01,43.67692525808107,1.084748995957006,1.4443057220278612,
72132.5,15.39999999999418,-0.24,-0.89,0.34,0.01,-0.02,0.01,42.784617562857804,0.9413272438898147,1.6590265358195897,
72132.6,15.5,-0.24,-0.89,0.34,-0.00,-0.04,0.01,43.94755283289389,0.890451019093059,1.863483059820289,
72132.7,15.599999999991269,-0.36,-0.61,0.84,-0.01,-0.04,0.02,44.23209242167954,0.8250219792447225,1.9297861369471712,
72132.8,15.69999999999709,-0.24,-0.89,0.34,-0.01,-0.04,0.02,43.695393349871566,1.0846527714102132,1.443436621968127,
72132.9,15.799999999988358,-0.25,-0.89,0.35,-0.01,-0.04,0.02,43.89752384816256,1.0832288532750234,1.4479292543354598,
72133.1,16.0,0.08,0.23,0.65,0.28,-0.09,0.20,44.17848910952026,6.1237705961812265,2.6108090365613537,
72133.2,16.09999999999127,0.10,0.25,0.63,0.96,-0.53,0.73,44.18530411799833,0.0296540434496838,2.5505615704228113,
72133.3,16.19999999999709,0.10,0.25,0.61,0.86,-0.30,0.62,43.87466011264361,5.9757308399272215,2.565785252864471,
72133.4,16.29999999998836,0.09,0.23,0.65,0.65,0.00,0.39,43.17347102098695,6.245956954751938,2.5768599966633663,
72133.5,16.39999999999418,0.09,0.25,0.59,0.61,0.03,0.35,43.08088439203633,6.071680608540617,2.5571370735167664,
72133.6,16.5,0.07,0.24,0.61,0.48,0.07,0.27,43.244289796457515,6.219053192178155,2.582509900325742,
72133.7,16.59999999999127,0.07,0.24,0.62,0.44,0.06,0.26,43.46084674738862,6.155428218646939,2.5946183094651465,
72133.8,16.69999999999709,0.05,0.24,0.66,0.38,0.03,0.24,43.88367350165663,6.136628923492058,2.6042842683329064,
72133.9,16.79999999998836,0.05,0.22,0.68,0.31,-0.05,0.22,43.484707656830345,6.001637588139181,2.5656616799270138,
72134.1,17.0,0.03,0.24,0.91,0.05,-0.06,0.10,43.77766325422132,6.020128370002891,2.5645847418117627,
72134.2,17.09999999999127,0.03,0.29,0.95,-0.09,0.10,0.04,43.775220159355,6.014356866391472,2.5473110352111092,
72134.4,17.29999999998836,0.03,0.26,0.94,-0.93,0.29,-0.33,44.240892848133164,6.009972813592334,2.552749196656265,
72134.5,17.39999999999418,0.02,0.27,0.94,-1.09,0.48,-0.70,44.112993550653535,0.005822915554304744,2.5179883702901273,
72134.6,17.5,0.01,0.28,0.95,0.05,-0.00,0.08,43.98181783419143,5.992404107718751,2.5616280071213584,
72134.7,17.59999999999127,0.02,0.31,0.96,0.04,0.07,0.01,43.753595280845204,6.010859708534148,2.56963913263138,
72134.8,17.69999999999709,0.02,0.29,0.95,0.02,0.06,0.02,43.86270169517605,0.6457663185836285,2.301386842851314,
72134.9,17.79999999998836,0.02,0.25,0.93,0.05,-0.04,0.09,44.73426650790197,0.7780623876525549,2.1822478314249585,
72135.1,18.0,-0.21,-0.70,0.93,-1.38,0.54,-0.38,43.06441106064264,0.966620971144364,1.9075610322620573,
72135.2,18.09999999999127,-0.19,-0.74,0.88,-0.65,0.17,-0.22,43.355584415389906,0.9062505452977478,2.0195624303827384,
72135.3,18.19999999999709,-0.18,-0.67,0.93,-0.69,1.34,0.29,42.399658017488775,0.9232159560723358,2.0173315770593097,
72135.4,18.29999999998836,-0.18,-0.67,0.92,-1.14,0.59,-0.34,42.10373498871567,0.9286641425400769,2.0167468678251703,
72135.5,18.39999999999418,-0.19,-0.68,0.91,-1.06,0.78,-0.35,43.398070233594495,0.995003913325682,1.6758327300266584,
72135.6,18.5,-0.19,-0.68,0.90,-0.99,0.84,-0.34,43.22972241409838,0.9958034233342877,1.658115765775508,
72135.7,18.59999999999127,-0.21,-0.68,0.90,-0.98,0.83,-0.33,43.45795439272309,0.9418025290251291,1.9124402726582617,
72135.8,18.69999999999709,-0.21,-0.69,0.91,-0.95,0.80,-0.30,43.45795439272309,0.9418025290251291,1.9124402726582617,
72135.9,18.79999999998836,-0.21,-0.70,0.91,-1.41,0.56,-0.39,43.32846293142649,0.9736273133192619,1.6234419407718634,
72136.1,19.0,-0.24,-0.85,0.47,0.00,0.17,-0.02,43.26967182681191,0.9800362594141295,1.6008449867178611,
72136.2,19.09999999999127,-0.23,-0.85,0.46,0.01,-0.05,0.01,44.3949017343208,0.98810816614914,1.6104509105066456,
72136.3,19.19999999999709,-0.24,-0.85,0.46,-0.01,-0.01,0.01,42.97509744026184,0.9704630163186281,1.5954642757654407,
72136.4,19.29999999998836,-0.24,-0.85,0.46,-0.00,0.15,-0.03,43.32544171730971,0.9878509747999161,1.569642270214817,
72136.5,19.39999999999418,-0.27,-0.85,0.43,0.00,0.25,-0.01,43.34019612322953,0.993037298613843,1.600103573541591,
72136.6,19.5,-0.27,-0.85,0.42,-0.01,0.20,-0.02,44.06165226134853,0.9966484860109076,1.600758832927163,
72136.7,19.59999999999127,-0.27,-0.85,0.43,-0.01,0.16,-0.02,44.04399618563238,1.0009323233015777,1.5853277630858364,
72136.8,19.69999999999709,-0.28,-0.84,0.44,-0.01,0.12,-0.02,43.88337840230626,1.0029655377913087,1.6008805906537207,
72136.9,19.79999999998836,-0.27,-0.84,0.44,-0.01,0.09,-0.02,44.276366156223794,0.995387042435584,1.589543317373734,
72137.1,20.0,-0.25,-0.84,0.45,-0.01,0.01,-0.01,43.817259156638265,0.9755144493650185,1.5669165673174386,
72137.2,20.09999999999127,-0.25,-0.84,0.45,-0.00,0.00,-0.00,43.74545804995074,0.987045236434484,1.612183865464715,
72137.3,20.19999999999709,-0.24,-0.85,0.45,-0.01,0.01,0.01,43.40144467641601,0.9850953623004247,1.6019063001265823,
72137.4,20.29999999998836,-0.25,-0.85,0.45,0.01,-0.01,-0.00,42.220499760187586,0.9772038827445114,1.6174730724279311,
72137.5,20.39999999999418,-0.24,-0.84,0.46,0.02,-0.01,-0.00,42.17565411466668,0.9772038827445114,1.5634460485858481,
72137.6,20.5,-0.25,-0.84,0.45,0.01,0.00,-0.01,42.52691618257783,0.9756188414762239,1.5865517066857333,
72137.7,20.59999999999127,-0.24,-0.84,0.45,0.01,0.01,-0.01,43.92510102435736,0.9694704399061593,1.5721622887906417,
72137.8,20.69999999999709,-0.25,-0.84,0.44,0.02,-0.01,-0.01,43.72102011618667,0.9816502858089282,1.6234268958339462,
72137.9,20.79999999998836,-0.26,-0.83,0.45,-0.01,0.01,-0.01,43.54238509774125,0.9754048520472843,1.571255649375834,
72138.1,21.0,-0.26,-0.84,0.45,-0.01,0.03,0.02,43.53841177626947,0.9678228744211084,1.576308728503542,
72138.2,21.09999999999127,-0.25,-0.83,0.46,0.01,0.04,0.04,42.52334652870115,0.9714929239633655,1.6256172115373873,
72138.3,21.19999999999709,-0.24,-0.86,0.46,-0.00,0.04,0.03,42.38777889911194,0.9651619878150249,1.6288645505756305,
72138.4,21.29999999998836,-0.25,-0.81,0.44,-0.01,0.04,0.03,43.60579089983347,0.974325824288379,1.6155300759556381,
72138.5,21.39999999999418,-0.26,-0.83,0.45,-0.01,0.04,0.03,43.38876006525192,0.9820904884828047,1.586930237249139,
72138.6,21.5,-0.25,-0.84,0.45,0.02,-0.18,0.11,42.98501366755628,0.9964110562668904,1.5905719493276411,
72138.7,21.59999999999127,-0.26,-0.84,0.45,-0.05,-0.20,0.03,42.56526518183577,0.9926375932896414,1.6018125006348694,
72138.8,21.69999999999709,-0.25,-0.85,0.47,-0.01,0.03,0.01,42.73234957265982,0.9806491983310874,1.6208964388772744,
72138.9,21.79999999998836,-0.26,-0.84,0.45,-0.01,0.03,0.03,43.60285082422937,0.984065906264334,1.5760712357118105,
72139.1,22.0,-0.25,-0.86,0.84,1.03,-0.59,0.62,43.29617650555301,0.9789414148560541,1.6382900034709487,
72139.2,22.09999999999127,-0.27,-0.87,0.85,0.10,-0.36,-0.07,43.97971577898156,1.025252678139926,1.6493222591802479,
72139.3,22.19999999999709,-0.34,-0.90,0.86,0.49,-0.22,-0.02,43.97971577898156,1.025252678139926,1.6493222591802479,
72139.4,22.29999999998836,-0.38,-0.90,0.87,0.59,-0.24,0.08,43.813088227149656,0.8150960763283119,2.0871219470074536,
72139.5,22.39999999999418,-0.23,-0.83,0.80,0.67,-0.28,0.20,43.87028493183057,0.987045236434484,1.6568376106084481,
72139.6,22.5,0.01,0.11,0.52,0.75,-0.33,0.32,43.88179918827395,0.9872973401187942,1.6554426753021654,
72139.7,22.59999999999127,-0.24,-0.84,0.81,0.85,-0.35,0.46,44.60817974318163,6.140539001966376,2.6090151492046987,
72139.8,22.69999999999709,0.05,0.23,0.77,0.96,-0.53,0.60,44.08047526967013,0.9913049608825213,1.634131990945553,
72139.9,22.79999999998836,-0.24,-0.85,0.83,0.99,-0.57,0.62,43.269682226704646,1.0108917863638387,1.6733571879358282,
72140.1,23.0,0.04,0.20,1.00,-0.07,0.30,-0.06,43.792790502547334,6.030712589708739,2.5892194396072292,
72140.2,23.09999999999127,0.02,0.21,1.01,-0.05,0.29,-0.04,44.05620047167027,6.026307503175108,2.596870334467459,
72140.3,23.19999999999709,0.07,0.20,0.96,-0.04,0.27,-0.04,44.55171713862441,6.017867182576185,2.6111693809018086,
72140.4,23.29999999998836,0.06,0.21,0.97,-0.01,0.26,-0.04,42.74399489986868,6.057191018120721,2.5911316353028044,
72140.5,23.39999999999418,0.03,0.21,1.02,0.01,0.26,-0.05,43.59674414448859,6.025184227960145,2.618182548988876,
72140.6,23.5,0.03,0.22,1.00,0.05,0.26,-0.06,42.68272952846385,6.032335870013714,2.625334990876836,
72140.7,23.59999999999127,0.04,0.25,0.99,0.05,0.26,-0.06,42.78820631903142,6.082675017104304,2.5658396062243454,
72140.8,23.69999999999709,0.04,0.27,0.97,-0.12,0.25,-0.08,43.42958208410484,6.011827828844922,2.6060912417259576,
72140.9,23.79999999998836,0.03,0.29,0.97,-0.10,0.26,-0.07,43.63164677158083,6.0684395780840745,2.5877874773306555,
72141.1,24.0,0.03,0.04,0.60,-0.86,0.18,-0.17,44.3078525771674,0.026077554236441407,2.5440413188705713,
72141.2,24.09999999999127,0.01,0.04,0.60,-1.90,1.11,-1.03,42.507361715354676,0.3402734269881812,2.4488757587956336,
72141.3,24.19999999999709,0.03,0.04,0.62,-0.81,0.18,-0.13,42.63707424296371,0.6374021208389736,2.276096107330109,
72141.4,24.29999999998836,0.03,0.03,0.61,-0.83,0.18,-0.15,44.012154003184165,0.7972508538510096,2.1180112064290375,
72141.5,24.39999999999418,-0.02,0.01,0.64,-0.93,0.19,-0.23,43.8664621322486,0.9377815767854194,1.9690049656175541,
72141.6,24.5,-0.02,-0.00,0.65,-1.17,0.22,-0.31,43.295078242220555,6.182206522377626,2.545573361696711,
72141.7,24.59999999999127,-0.02,-0.03,0.68,-1.27,0.30,-0.31,44.2704449943752,6.187002675919746,2.5615690059110765,
72141.8,24.69999999999709,0.00,-0.03,0.73,-1.37,0.41,-0.35,43.59775452933328,1.0422753981508217,1.5148008840925102,
72141.9,24.79999999998836,0.01,-0.02,0.73,-1.40,0.43,-0.37,44.06041534075683,0.01006407244284065,2.5426131762404567,
72142.1,25.0,-0.34,-0.84,0.26,-0.29,0.18,0.27,43.80809171831158,1.0659930829958597,1.4701886231506143,
72142.2,25.09999999999127,-0.35,-0.84,0.24,-0.15,-0.38,0.06,43.80809171831158,1.0659930829958597,1.4701886231506143,
72142.3,25.19999999999709,-0.34,-0.85,0.25,-0.14,-0.04,0.06,43.11654554808397,1.0705567980309667,1.4722990191890968,
72142.4,25.29999999998836,-0.28,-0.86,0.31,-0.11,-0.42,0.04,41.781897994227116,1.0744707439593935,1.449393248115434,
72142.5,25.39999999999418,-0.24,-0.87,0.37,-0.21,-0.32,0.10,43.37705038381471,1.0679734163136427,1.4712708053191554,
72142.6,25.5,-0.21,-0.88,0.38,-0.26,-0.26,0.12,42.61213911551496,1.0559708489426394,1.4942174802635786,
72142.7,25.59999999999127,-0.26,-0.91,0.37,-0.37,0.06,0.18,44.3790772774739,1.0918827282473107,1.4306323619321544,
72142.8,25.69999999999709,-0.22,-0.91,0.47,-0.37,0.13,0.23,43.04442472608968,1.0613656631528807,1.4879964970772088,
72142.9,25.79999999998836,-0.20,-0.92,0.49,-0.35,0.17,0.26,43.54508697890039,1.0674379227656963,1.4808832377396979,
72143.1,26.0,-0.27,-0.89,0.35,-0.00,0.03,-0.02,43.17196775686742,1.0510138963272033,1.4551863352104126,
72143.2,26.09999999999127,-0.27,-0.89,0.34,0.00,0.03,-0.02,43.00406492414409,1.0545546481803312,1.4528598245063225,
72143.3,26.19999999999709,-0.26,-0.89,0.34,-0.00,0.02,-0.02,43.20285754438009,1.05720073228665,1.4534050072744273,
72143.4,26.29999999998836,-0.26,-0.89,0.34,-0.00,0.03,-0.02,43.31007388587555,1.0651715103193364,1.4234153056235463,
72143.5,26.39999999999418,-0.27,-0.89,0.33,0.01,0.03,-0.02,43.29804152614757,1.0584575378801124,1.453664261813794,
72143.6,26.5,-0.27,-0.89,0.33,0.01,0.01,-0.01,43.39626481622583,1.0481433713087995,1.4643651649899656,
72143.7,26.59999999999127,-0.27,-0.89,0.34,-0.00,0.03,-0.02,42.38683522038417,1.056300109875065,1.4641935722842625,
72143.8,26.69999999999709,-0.27,-0.89,0.33,-0.00,0.03,-0.00,42.851656910789345,1.041266127484095,1.4470314668744313,
72143.9,26.79999999998836,-0.27,-0.89,0.34,-0.00,0.02,0.01,42.635920302017645,1.039743569328677,1.4442743593609397,
72144.1,27.0,-0.26,-0.89,0.34,0.01,0.02,-0.00,44.633943361526995,1.066698448567839,1.4571854445755714,
72144.2,27.09999999999127,-0.27,-0.89,0.34,-0.00,0.00,-0.01,42.8258555080923,1.0231948970710534,1.4483682300893896,
72144.3,27.19999999999709,-0.27,-0.89,0.34,0.01,0.01,-0.01,43.54388705662369,1.0620354255873532,1.4517847967310935,
72144.4,27.29999999998836,-0.26,-0.89,0.34,0.00,-0.03,0.00,42.18305821061342,1.0427562875626601,1.4429086516415095,
72144.5,27.39999999999418,-0.27,-0.89,0.33,0.02,0.01,-0.00,43.09212108959131,1.0597695063620889,1.4493622642607042,
72144.6,27.5,-0.27,-0.88,0.34,0.01,0.01,0.00,43.078823103701424,1.062631458654745,1.458907223679187,
72144.7,27.59999999999127,-0.26,-0.88,0.34,0.01,0.01,-0.01,42.852626523936664,1.0487993941136389,1.4707523317171358,
72144.8,27.69999999999709,-0.27,-0.89,0.34,0.00,-0.00,0.00,43.06591343510549,1.0651715103193364,1.4684487686039214,
72144.9,27.79999999998836,-0.26,-0.89,0.34,-0.00,-0.01,0.00,43.04645862321313,1.0494397571874745,1.4342403284747482,
72145.1,28.0,-0.26,-0.89,0.34,-0.00,-0.02,0.01,42.97243186043815,1.054873853111234,1.460034005207735,
72145.2,28.09999999999127,-0.26,-0.89,0.35,-0.01,-0.00,-0.00,42.75028654874725,1.0402303158706374,1.4559247477296038,
72145.3,28.19999999999709,-0.26,-0.89,0.35,0.01,-0.01,0.01,43.84920067686525,1.0546087837977338,1.464321944192826,
72145.4,28.29999999998836,-0.26,-0.89,0.35,0.00,-0.01,0.01,43.858173696587045,1.0534436007022898,1.4565440872399078,
72145.5,28.39999999999418,-0.29,-0.89,0.35,-0.06,-0.12,0.03,42.22843354897267,1.0645285786613432,1.4897194442195696,
72145.6,28.5,-0.26,-0.89,0.35,0.00,-0.02,0.01,43.50300219525084,1.0515927478892022,1.4468092740024088,
72145.7,28.59999999999127,-0.27,-0.89,0.35,0.30,-0.44,-0.10,43.42427201462335,1.0532620466301692,1.4472795093440018,
72145.8,28.69999999999709,-0.40,-0.94,0.84,1.38,-0.79,0.51,43.38088749668452,1.0569578660492664,1.4881775465592155,
72145.9,28.79999999998836,-0.27,-0.89,0.34,0.00,-0.01,0.01,43.09212108959131,1.0597695063620889,1.4493622642607042,
72146.1,29.0,-0.34,-0.49,0.70,2.59,-0.21,1.21,43.42272561689328,0.7658297168489043,2.0954228507318,
72146.2,29.09999999999127,-0.34,-0.80,0.78,2.83,-0.18,0.98,43.018969071794366,0.8734726749350142,1.9403893782291102,
72146.3,29.19999999999709,-0.34,-0.74,0.77,2.85,-0.11,1.05,44.090897019679694,0.19902821146046482,2.428922630802088,
72146.4,29.29999999998836,-0.33,-0.70,0.76,2.82,-0.12,1.10,43.68165747771025,6.22718456473749,2.551721617197069,
72146.5,29.39999999999418,-0.33,-0.66,0.74,2.76,-0.15,1.14,44.30399643373045,6.033563741310303,2.6235102197585887,
72146.6,29.5,-0.34,-0.84,0.82,2.68,-0.18,1.18,44.336197401220595,5.9106762505508454,2.57803302390118,
72146.7,29.59999999999127,-0.34,-0.82,0.80,-0.08,0.21,0.14,43.00430676106755,5.870823484796474,2.5619535740026094,
72146.8,29.69999999999709,-0.33,-0.56,0.69,2.76,-0.28,0.95,43.78220300533083,5.913238865372068,2.5732760689615786,
72146.9,29.79999999998836,-0.34,-0.54,0.68,2.80,-0.22,0.96,44.96453936159026,0.8788803935831139,2.0265337604955422,
72147.1,30.0,-0.02,0.33,0.90,0.04,-0.06,-0.04,42.905321348289654,5.965490729494536,2.54319239285864,
72147.2,30.09999999999127,-0.02,0.32,0.93,-0.05,0.02,-0.06,43.59354998161999,5.963229162546308,2.539997529047089,
72147.3,30.19999999999709,-0.01,0.32,0.92,0.05,-0.08,0.02,42.98195435296073,5.95708584185277,2.528752552800351,
72147.4,30.29999999998836,-0.01,0.33,0.93,0.04,-0.08,-0.00,43.861577719001396,5.972383220411041,2.5554405973447496,
72147.5,30.39999999999418,-0.00,0.33,0.92,0.04,-0.09,-0.02,42.83352308647982,5.961171039708889,2.5473212090860464,
72147.6,30.5,-0.01,0.33,0.92,0.05,-0.09,-0.03,43.956511463035824,5.957051562318883,2.5296547093931645,
72147.7,30.59999999999127,-0.01,0.32,0.93,0.03,0.02,-0.03,43.71625555785857,5.965764832699444,2.5375299026364893,
72147.8,30.69999999999709,-0.02,0.32,0.93,0.01,0.04,-0.01,44.4412274807976,5.934450390348217,2.579771351197442,
72147.9,30.79999999998836,-0.01,0.33,0.90,0.05,-0.07,-0.03,42.93158860326508,5.97426286855878,2.5369481536550156,
72149.7,32.59999999999127,0.02,0.31,0.93,-0.01,0.02,-0.01,46.51500940556714,6.131334228378254,2.555809582126949,
72149.8,32.69999999999709,0.05,0.25,0.80,-0.61,0.26,-0.16,43.589923147443145,1.0415081656668677,1.4542211824365945,
72149.9,32.79999999998836,-0.25,-0.72,1.01,-1.18,0.87,-0.43,43.670176322062176,1.0372596292283822,1.4507468111603286,
72150.1,33.0,-0.24,-0.88,0.52,0.13,0.11,-0.12,42.61572010420568,1.0343498859725224,1.4494164169653538,
72150.2,33.09999999999127,-0.31,-0.87,0.35,-0.17,0.23,0.51,43.97369554631496,1.0497499907792416,1.4662252648395022,
72150.3,33.19999999999709,-0.26,-0.90,0.61,-0.10,0.15,0.35,42.96971724365894,1.0437866786962624,1.4375178210698039,
72150.4,33.29999999998836,-0.28,-0.92,0.58,-0.07,0.12,0.26,43.794791927808035,1.0854732883622609,1.4623518493733223,
72150.5,33.39999999999418,-0.27,-0.91,0.58,-0.02,0.06,0.11,42.89743815194563,1.022546604676367,1.4771808722942361,
72150.6,33.5,-0.26,-0.90,0.57,-0.00,0.05,0.08,43.74617468990861,1.0105625875170032,1.4548695881735796,
72150.7,33.59999999999127,-0.25,-0.90,0.55,0.04,0.06,0.06,43.304706441679066,1.0204824797704914,1.4494960678836892,
72150.8,33.69999999999709,-0.24,-0.89,0.51,0.08,0.09,0.03,44.168517068156135,1.0526387731640698,1.4635007215616977,
72150.9,33.79999999998836,-0.24,-0.88,0.52,0.10,0.10,-0.00,42.63617360880312,1.0344378828214258,1.4326811156683237,
72151.1,34.0,-0.28,-0.88,0.35,-0.00,-0.01,-0.01,43.42235484171719,1.0011314358259689,1.4502903031879277,
72151.2,34.09999999999127,-0.28,-0.88,0.34,-0.00,-0.00,-0.00,42.407061911903305,1.0112936239931987,1.4822520047645589,
72151.3,34.19999999999709,-0.29,-0.88,0.34,-0.00,-0.01,-0.01,42.78823319558778,1.0428574968728506,1.4470825818567843,
72151.4,34.29999999998836,-0.28,-0.88,0.34,-0.01,-0.00,-0.00,42.8119364196482,1.023370982054873,1.4699526347684624,
72151.5,34.39999999999418,-0.29,-0.89,0.34,-0.00,-0.00,-0.01,43.26567808321048,1.0357226624580582,1.457531692512283,
72151.6,34.5,-0.28,-0.88,0.34,-0.00,-0.00,-0.01,43.957017642237744,1.0481217862498744,1.4414462837806352,
72151.7,34.59999999999127,-0.28,-0.88,0.33,0.01,0.00,-0.00,42.493658350393886,1.0522972522510243,1.4478805224172375,
72151.8,34.69999999999709,-0.28,-0.88,0.34,0.00,-0.00,-0.00,44.04425615219311,1.048892500769625,1.4332280288944255,
72151.9,34.79999999998836,-0.28,-0.88,0.34,-0.00,-0.00,-0.00,42.40941051229078,1.0314762193791525,1.4535728689728078,
72152.1,35.0,-0.28,-0.88,0.34,0.01,0.01,-0.01,44.42781336055152,1.0547092510531657,1.4686556641280493,
72152.2,35.09999999999127,-0.28,-0.88,0.34,0.00,0.01,-0.01,42.9497962742549,1.0371155933505265,1.4756582420171127,
72152.3,35.19999999999709,-0.28,-0.88,0.35,0.01,0.01,-0.01,44.2698554323368,1.0108623199511164,1.407431764116525,
72152.4,35.29999999998836,-0.29,-0.88,0.34,1.41,-0.54,0.70,43.442543664016725,1.0183042569177323,1.4352607440580996,
72152.5,35.39999999999418,-0.50,-0.89,0.80,2.37,-0.54,0.91,43.331901643015854,0.8977607288068153,1.8072315375207604,
72152.6,35.5,-0.29,-0.89,0.33,2.35,-0.66,1.30,42.37210167079277,1.0528000778905775,1.4510924610857074,
72152.7,35.59999999999127,-0.28,-0.36,0.72,0.00,-0.01,-0.01,43.814194047135,0.5405173380552245,2.214054487705435,
72152.8,35.69999999999709,-0.29,-0.88,0.34,-0.01,-0.03,0.00,41.54719003735391,1.0817075379048209,1.464693686635766,
72152.9,35.79999999998836,-0.29,-0.88,0.36,-0.02,-0.07,0.01,44.80699164193017,1.0048064616014647,1.4760264413731887,
72153.1,36.0,0.10,0.25,0.71,0.72,-0.34,0.40,42.7281651841031,6.142031491818819,2.524194084921363,
72153.2,36.09999999999127,0.08,0.25,0.75,0.64,-0.16,0.22,43.45078250158448,6.10733638385196,2.5530410982349214,
72153.3,36.19999999999709,0.09,0.25,0.74,-0.11,0.02,-0.07,42.872593810032065,6.011217441285128,2.5142805000806017,
72153.4,36.29999999998836,0.10,0.26,0.70,0.16,0.14,-0.06,43.74892684398098,6.120637144006821,2.5429076535697077,
72153.5,36.39999999999418,0.09,0.28,0.73,0.01,0.03,-0.00,44.326950041707136,6.14442891115655,2.5240526912145547,
72153.6,36.5,0.08,0.28,0.75,0.59,-0.11,0.17,42.82146891455266,5.968810000541521,2.521935529372811,
72153.7,36.59999999999127,0.04,0.25,0.75,0.41,0.11,-0.02,43.68674169585093,6.094115478481423,2.5527831165713506,
72153.8,36.69999999999709,0.03,0.25,0.74,0.77,-0.37,0.45,43.97565803941994,5.915017635485436,2.5290345989441594,
72153.9,36.79999999998836,0.01,0.23,0.73,0.74,-0.36,0.43,43.22113719003701,5.97894472468043,2.5472732664920494,
72154.1,37.0,-0.01,0.30,0.93,0.05,0.25,0.04,43.21242645350987,5.930740936406949,2.540988214911702,
72154.2,37.09999999999127,-0.02,0.31,0.93,-0.05,0.05,-0.07,43.0118716170315,5.909272241118042,2.5354753756481996,
72154.3,37.19999999999709,-0.01,0.31,0.93,-0.04,0.08,-0.04,43.652314944341725,5.973238186950391,2.488536435235819,
72154.4,37.29999999998836,-0.01,0.29,0.91,-0.03,0.12,-0.02,42.89196894524661,5.8962537406870625,2.5317425459646246,
72154.5,37.39999999999418,-0.01,0.28,0.91,-1.62,0.89,-0.94,43.24978728271389,5.937068005665289,2.5312051978050976,
72154.6,37.5,0.02,0.27,0.89,-1.72,0.71,-1.41,43.55879360129249,0.35978427563082727,2.3811601362627215,
72154.7,37.59999999999127,0.03,0.27,0.91,-0.04,0.12,0.01,43.31586429935342,5.944116056581555,2.5310382600732324,
72154.8,37.69999999999709,0.03,0.27,0.92,-0.01,0.17,0.06,42.48847608469855,0.7782013179555923,2.068382592035523,
72154.9,37.79999999998836,0.03,0.27,0.93,0.02,0.21,0.05,44.260828053709076,0.8889161749873682,1.949403957034162,
72155.1,38.0,-0.30,-0.81,0.60,-0.99,0.30,-0.33,43.746676445188385,0.9641518152341347,1.8049477263544766,
72155.2,38.09999999999127,-0.34,-0.74,0.77,-1.01,0.28,-0.29,44.06913772698531,1.0081895006759534,1.6564484128644765,
72155.3,38.19999999999709,-0.35,-0.77,0.71,-1.02,0.26,-0.26,44.94069981653601,0.9797733448156064,1.7672026865127386,
72155.4,38.29999999998836,-0.26,-0.80,0.74,-0.80,0.28,-0.24,43.69374669217553,0.9622665109162517,1.5234033870454258,
72155.5,38.39999999999418,-0.28,-0.81,0.67,-0.69,0.35,-0.28,43.202988322568615,0.9806491983310874,1.726740951534089,
72155.6,38.5,-0.29,-0.80,0.66,-0.02,0.01,-0.13,43.36105395398041,0.9845440131752664,1.7341096192803345,
72155.7,38.59999999999127,-0.30,-0.80,0.65,-0.06,0.04,-0.01,43.443290621222516,1.0031834050122097,1.5235908429513838,
72155.8,38.69999999999709,-0.31,-0.81,0.62,-0.65,0.38,-0.29,43.80543801858395,0.9958034233342877,1.7549171543936235,
72155.9,38.79999999998836,-0.31,-0.81,0.61,-0.61,0.44,-0.21,43.47168043680851,0.9906186944930679,1.7348560165108158,
72156.1,39.0,-0.30,-0.86,0.39,-0.00,-0.01,0.01,43.07759742604037,0.9628698751744226,1.5178438412354536,
72156.2,39.09999999999127,-0.31,-0.86,0.39,-0.01,0.02,-0.01,43.69696556970518,1.0079696313858406,1.5153865576429864,
72156.3,39.19999999999709,-0.30,-0.85,0.40,0.00,-0.01,0.01,44.010032947045154,1.0088676310054847,1.5128225240455941,
72156.4,39.29999999998836,-0.30,-0.85,0.40,0.00,-0.02,0.00,44.780454441642284,0.9880695727508905,1.5053192187101758,
72156.5,39.39999999999418,-0.30,-0.85,0.39,0.01,-0.03,-0.00,41.83452282505443,0.98518479201682,1.510283033641538,
72156.6,39.5,-0.31,-0.86,0.38,0.01,-0.03,-0.01,43.55432699514481,0.9902624640382923,1.5009416421332007,
72156.7,39.59999999999127,-0.31,-0.85,0.38,0.02,-0.03,-0.02,42.89154345555776,0.9914812640175195,1.4986916902794132,
72156.8,39.69999999999709,-0.31,-0.85,0.38,0.01,-0.02,-0.02,42.92977288549289,0.9957421740329044,1.5062274856138165,
72156.9,39.79999999998836,-0.30,-0.86,0.38,-0.01,0.01,-0.01,43.4505512047891,0.9930287803707479,1.505388041565058,
72157.1,40.0,-0.30,-0.86,0.39,-0.02,-0.00,-0.01,43.71087393315307,0.9833660966266959,1.503026760849374,
72157.2,40.09999999999127,-0.31,-0.86,0.38,-0.02,-0.01,-0.02,42.885476562584685,0.992240223223899,1.5409449592785736,
72157.3,40.19999999999709,-0.30,-0.86,0.38,-0.00,0.02,-0.01,44.262855759654734,1.012292948516325,1.5156431418969232,
72157.4,40.29999999998836,-0.31,-0.85,0.38,-0.00,0.03,-0.01,43.414198138397076,0.9667125825304255,1.4956349376300913,
72157.5,40.39999999999418,-0.30,-0.85,0.39,-0.00,0.03,-0.02,43.04110128702564,0.9972742212635151,1.4912535413480832,
72157.6,40.5,-0.30,-0.85,0.39,-0.01,0.01,-0.01,43.908884066894714,1.0199193330080831,1.496483291461803,
72157.7,40.59999999999127,-0.30,-0.86,0.39,0.00,-0.03,0.01,43.816440978244685,0.989334143066714,1.4912903485786184,
72157.8,40.69999999999709,-0.30,-0.86,0.39,0.01,0.01,0.00,43.57110625173522,0.9881528655101272,1.5034991420408874,
72157.9,40.79999999998836,-0.30,-0.86,0.38,0.01,0.03,-0.01,43.73782802106204,0.9816502858089282,1.5113161505495303,
72158.1,41.0,-0.30,-0.86,0.38,0.00,0.00,-0.00,42.536315073123106,0.9816831932622604,1.5096339592540884,
72158.2,41.09999999999127,-0.30,-0.86,0.38,0.00,0.01,-0.00,43.085093710006014,0.9815016508350075,1.4862115258278459,
72158.3,41.19999999999709,-0.31,-0.86,0.38,0.00,-0.00,-0.00,42.83955882125772,0.9929199593946388,1.4986040410446457,
72158.4,41.29999999998836,-0.30,-0.86,0.38,0.00,0.01,-0.01,42.96338557423053,0.9939410999711087,1.4822331932499129,
72158.5,41.39999999999418,-0.31,-0.86,0.38,0.00,-0.00,-0.01,42.953824043966094,0.9969757915871754,1.4948278215913682,
72158.6,41.5,-0.31,-0.86,0.38,0.00,0.01,-0.00,42.62550644860422,0.970409244651994,1.51187731278303,
72158.7,41.59999999999127,-0.31,-0.86,0.38,0.00,0.01,-0.00,44.42713360098758,0.995387042435584,1.4862878977311824,
72158.8,41.69999999999709,-0.30,-0.86,0.38,0.00,0.00,0.00,42.99329366308192,0.97956229909139,1.5102848570697864,
72158.9,41.79999999998836,-0.30,-0.86,0.38,0.67,-0.80,0.41,42.45836195615653,0.9876442358099128,1.4880326451191956,
72159.1,42.0,-0.46,-0.94,0.99,2.22,-0.87,1.01,43.191782783302656,0.8373423524317589,1.9107005004179238,
72159.2,42.09999999999127,-0.46,-0.93,0.98,1.57,-1.04,0.74,43.014175570386094,0.6840895571025312,2.0704759634564356,
72159.3,42.19999999999709,-0.25,-0.27,0.69,1.83,-1.00,0.88,42.311008023917374,0.9319532003789518,1.6756894553227475,
72159.4,42.29999999998836,-0.11,0.10,0.60,2.04,-0.90,1.00,42.949577413520615,0.9633447073215025,1.6586867860793657,
72159.5,42.39999999999418,-0.01,0.19,0.56,2.17,-0.87,1.01,45.16759015046077,6.140495702711645,2.4573403936873492,
72159.6,42.5,0.06,0.23,0.70,0.34,-0.27,0.24,42.949577413520615,0.9633447073215025,1.6586867860793657,
72159.7,42.59999999999127,0.07,0.28,0.82,-0.03,-0.01,0.14,42.71729977421326,0.8926976893849451,1.7713548725942536,
72159.8,42.69999999999709,-0.46,-0.94,0.95,-0.31,-0.17,-0.12,43.42323456399811,0.8787190663916746,1.79442631534119,
72159.9,42.79999999998836,-0.46,-0.94,0.97,-0.11,0.04,-0.17,43.98125055066079,0.8682644434093978,1.8113942365998252,
72160.1,43.0,0.01,0.28,0.94,0.08,-0.02,0.01,43.79478621936634,5.965925129460232,2.5822224426268443,
72160.2,43.09999999999127,0.01,0.28,0.95,0.14,0.18,0.02,43.14504258892323,6.017867182576185,2.591938326063108,
72160.3,43.19999999999709,0.01,0.28,0.95,0.14,0.18,0.02,42.900080419505045,6.004766558023793,2.573859292882946,
72160.4,43.29999999998836,0.01,0.30,0.92,0.13,0.14,0.01,42.758728933400256,5.997713519537044,2.563469651054401,
72160.5,43.39999999999418,-0.01,0.28,0.91,0.13,0.10,-0.00,43.770392961452835,5.984461987855155,2.590050184160825,
72160.6,43.5,-0.01,0.27,0.91,0.12,0.06,-0.01,42.67580813528902,5.945218472351326,2.572078981726653,
72160.7,43.59999999999127,-0.00,0.30,0.93,0.11,0.02,-0.01,43.6327285417724,6.000630354709998,2.5533990015131605,
72160.8,43.69999999999709,0.02,0.29,0.92,0.10,-0.01,-0.00,43.65402845099178,5.996501176618745,2.557219726110677,
72160.9,43.79999999998836,0.06,0.24,0.92,-0.02,0.05,-0.00,43.90007289287798,5.956852883357296,2.6144250272322886,
72161.1,44.0,0.05,0.15,0.73,-0.04,0.16,0.07,44.35096504023334,6.025250358224127,2.56580586813196,
72161.2,44.09999999999127,0.06,0.15,0.72,-0.07,0.12,0.09,42.84105040729043,6.00116219510772,2.598642473389244,
72161.3,44.19999999999709,0.07,0.16,0.69,-0.14,0.16,0.09,43.899932801770895,0.06512516333438588,2.473439239755233,
72161.4,44.29999999998836,0.08,0.17,0.69,-0.16,0.23,0.07,43.209018734518835,0.35415293048920593,2.3689295061849767,
72161.5,44.39999999999418,0.08,0.18,0.67,-0.21,0.31,0.04,43.0160435186687,5.98003060610744,2.601808193128768,
72161.6,44.5,0.08,0.18,0.65,-0.26,0.38,0.01,42.560949237534636,6.094339530272875,2.5851421184368633,
72161.7,44.59999999999127,0.05,0.16,0.66,-0.31,0.42,-0.03,42.287031108839976,0.8393703508679299,1.9639422025909383,
72161.8,44.69999999999709,0.03,0.15,0.67,-0.37,0.45,-0.06,43.91723807344902,5.997749765460762,2.592878150040458,
72161.9,44.79999999998836,0.02,0.14,0.67,-0.41,0.47,-0.09,44.18110116328021,6.02429449819904,2.575120930289074,
72162.1,45.0,-0.12,-0.85,1.03,0.67,0.30,-0.23,42.95712397263113,0.9404560374890598,1.639523545023762,
72162.2,45.09999999999127,-0.22,-0.95,1.03,-0.54,0.09,0.03,43.69081596857628,0.9594504229761746,1.5094176726020798,
72162.3,45.19999999999709,-0.26,-0.92,0.86,-0.01,0.01,-0.01,44.19022629496255,0.9752471713340205,1.5078449183767781,
72162.4,45.29999999998836,-0.30,-0.92,0.81,-0.02,-0.05,0.02,43.04478365609473,0.9482757151003027,1.6186717480343367,
72162.5,45.39999999999418,-0.36,-0.96,0.81,-1.04,1.65,0.24,42.46747579030334,0.9311235384613249,1.4863963539473055,
72162.6,45.5,-0.45,-0.85,0.45,-1.03,1.76,0.22,42.68319224238037,0.9573831771809909,1.5614248193219158,
72162.7,45.59999999999127,-0.13,-0.80,1.08,-0.31,1.55,0.06,43.08373823149518,0.9241708110820227,1.6661040659949886,
72162.8,45.69999999999709,-0.43,-0.76,0.35,0.68,0.61,-0.14,43.51588330713281,0.9888050340959819,1.4888955869635576,
72162.9,45.79999999998836,-0.42,-0.74,0.26,0.03,-0.01,-0.01,41.68098367361307,0.9344056968020394,1.5208727384422271,
72163.1,46.0,-0.36,-0.83,0.40,-0.03,-0.06,0.04,43.14146033689634,0.951521604935275,1.4723560872556747,
72163.2,46.09999999999127,-0.36,-0.83,0.40,0.01,-0.00,-0.01,43.80434909914768,0.9595081751815916,1.5075183765468887,
72163.3,46.19999999999709,-0.36,-0.83,0.39,-0.00,0.01,0.00,42.52541475400328,0.9532022590280024,1.517155609486597,
72163.4,46.29999999998836,-0.37,-0.83,0.39,-0.00,-0.01,0.00,42.51910746946601,0.9388968292318883,1.4987664131367875,
72163.5,46.39999999999418,-0.36,-0.83,0.40,-0.03,-0.07,0.05,43.59284459633255,0.9213141529072061,1.4959435318944023,
72163.6,46.5,-0.36,-0.83,0.40,-0.02,-0.07,0.05,42.22672850221764,0.9486734615501273,1.5324225831324103,
72163.7,46.59999999999127,-0.35,-0.83,0.40,-0.01,-0.07,0.04,42.22672850221764,0.9486734615501273,1.5324225831324103,
72163.8,46.69999999999709,-0.36,-0.83,0.39,0.02,-0.04,0.03,44.06967324589553,0.9617282722908684,1.5063082286425646,
72163.9,46.79999999998836,-0.35,-0.83,0.39,0.02,-0.02,0.02,43.01451150483985,0.97956229909139,1.502626994129592,
72164.1,47.0,-0.36,-0.83,0.40,-0.00,-0.00,0.01,41.99660581523226,0.9496048562732726,1.5281609189078884,
72164.2,47.09999999999127,-0.36,-0.83,0.40,-0.00,-0.00,0.01,43.24129739034203,0.9839494209671477,1.52568524889438,
72164.3,47.19999999999709,-0.36,-0.82,0.40,0.01,0.04,-0.01,42.86980639097872,0.9363140865047662,1.5136153916161543,
72164.4,47.29999999998836,-0.36,-0.82,0.40,-0.00,0.00,0.02,43.95673896002751,0.9560020062311818,1.5191316621758233,
72164.5,47.39999999999418,-0.37,-0.83,0.40,-0.00,0.00,0.02,43.063670303400755,0.97956229909139,1.4875675531080257,
72164.6,47.5,-0.37,-0.82,0.40,0.00,-0.01,0.01,44.36532091622915,0.9410208200856613,1.5157706513311744,
72164.7,47.59999999999127,-0.36,-0.83,0.39,0.00,-0.03,0.01,44.80902364479726,0.939356281554892,1.5308383836573696,
72164.8,47.69999999999709,-0.36,-0.83,0.40,0.01,-0.03,0.01,43.22823845589824,0.9342637463162601,1.4802224034339573,
72164.9,47.79999999998836,-0.36,-0.83,0.40,0.01,-0.03,0.01,43.41856169888634,0.9336257096562379,1.491715455486617,
72165.1,48.0,-0.36,-0.83,0.40,0.00,-0.02,0.01,43.759946297956084,0.9328098679806085,1.4661721575398765,
72165.2,48.09999999999127,-0.37,-0.83,0.40,0.00,-0.02,0.01,43.89725959556018,0.94794985703835,1.5338835909672761,
72165.3,48.19999999999709,-0.36,-0.83,0.40,-0.00,0.01,-0.01,44.03880675041049,0.9602568147742693,1.5030769877088976,
72165.4,48.29999999998836,-0.36,-0.82,0.40,-0.01,-0.01,0.00,43.22137087136409,0.943774691691192,1.491585998942521,
72165.5,48.39999999999418,-0.36,-0.83,0.41,0.00,-0.02,0.01,42.80439463419615,0.9447410347562417,1.4854210303864506,
72165.6,48.5,-0.36,-0.82,0.40,-0.01,-0.03,0.01,44.00564054754799,0.964099589966913,1.5075805112788905,
72165.7,48.59999999999127,-0.36,-0.82,0.40,-0.00,-0.02,-0.00,41.49962529951325,0.9692556763919297,1.4962688504643302,
72165.8,48.69999999999709,-0.41,-0.80,0.47,-0.03,-0.50,0.06,44.069331739884596,0.9378517970789689,1.4985745337507272,
72165.9,48.79999999998836,-0.35,-0.82,0.41,-0.00,-0.00,-0.00,41.618825067510016,0.9612744200923495,1.4964826977112147,
72166.1,49.0,-0.44,-0.91,0.93,1.39,-0.68,0.64,42.016189736814546,0.8542605851985077,1.790816392214658,
72166.2,49.09999999999127,-0.48,-0.89,0.89,1.56,-0.57,0.76,42.39707890881163,0.92005136951668,1.6560469269573683,
72166.3,49.19999999999709,-0.48,-0.88,0.89,2.14,-1.26,1.22,42.982904741303834,0.8973755642290324,1.7066161892262306,
72166.4,49.29999999998836,-0.47,-0.85,0.89,1.87,-0.87,1.03,42.98532307660371,0.273404659035714,2.3952899604833995,
72166.5,49.39999999999418,-0.41,-0.89,0.96,1.53,-0.64,0.83,44.430950923877376,6.237319412092089,2.4684838924446066,
72166.6,49.5,-0.42,-0.89,0.94,1.27,-0.74,0.61,43.1664175024984,0.9152140214209132,1.6463899730508509,
72166.7,49.59999999999127,-0.45,-0.82,0.92,1.81,-0.74,1.02,43.574329598973755,5.871259205227891,2.5353841309047094,
72166.8,49.69999999999709,-0.43,-0.81,0.92,1.33,-0.71,0.62,42.94980558745289,0.8803577969996716,1.7470280678187715,
72166.9,49.79999999998836,-0.43,-0.81,0.92,1.94,-0.75,1.02,42.62713806954438,0.8718364720794358,1.7615007650860142,
72167.1,50.0,0.07,0.38,0.99,0.01,-0.27,-0.09,44.81700123836935,5.849063382679129,2.5861698185847564,
72167.2,50.09999999999127,0.06,0.37,0.99,0.02,-0.22,-0.09,44.149814269145004,5.864960977600357,2.5472960555178767,
72167.3,50.19999999999709,0.06,0.36,0.99,0.04,-0.14,-0.09,43.49525721271229,5.8975757677252005,2.5465708336436945,
72167.4,50.29999999998836,0.05,0.34,0.97,0.06,-0.06,-0.09,43.22516512403394,5.872711681020967,2.6109076130265167,
72167.5,50.39999999999418,0.03,0.32,0.95,0.07,-0.00,-0.09,43.58284180729843,5.891840487229076,2.549338255253247,
72167.6,50.5,0.01,0.31,0.95,0.08,0.04,-0.08,43.95761936229031,5.869431762169645,2.555851575316285,
72167.7,50.59999999999127,0.07,0.37,0.96,0.02,0.26,-0.08,43.69258289458292,5.792564640671871,2.65591887457295,
72167.8,50.69999999999709,0.07,0.38,0.97,0.01,0.33,-0.04,44.564521763393806,5.8548547118795415,2.5779063459734104,
72167.9,50.79999999998836,-0.01,0.34,0.91,0.02,-0.30,-0.10,45.032091890117655,5.889690615093436,2.5864748898404213,
72168.0,50.89999999999418,0.10,0.15,0.66,-1.10,0.31,-0.13,43.27088744178931,5.970770011521997,2.5802245273622195,
72168.1,51.0,0.08,0.14,0.67,-1.14,0.32,-0.16,43.25216988776401,5.969810226302008,2.5800440945493714,
72168.2,51.09999999999127,-0.25,-0.25,0.91,-1.92,0.79,-1.13,42.857557093236196,5.947432373094969,2.574113291460277,
72168.3,51.19999999999709,0.07,0.15,0.71,-1.98,0.53,-1.16,42.93639598289545,6.008872338016717,2.583433329614222,
72168.4,51.29999999998836,0.05,0.12,0.76,-1.17,0.35,-0.19,43.648664355281255,0.7256103493040188,2.1631578802374674,
72168.5,51.39999999999418,0.05,0.09,0.82,-1.44,0.51,-0.43,43.11425402346653,6.094339530272875,2.593105093729444,
72168.6,51.5,0.05,0.06,0.84,-1.48,0.54,-0.50,42.440518375722036,6.077322695482126,2.577262891601773,
72168.7,51.59999999999127,0.07,0.02,0.85,-1.49,0.58,-0.59,42.51381657767273,0.9762273982900052,1.684652281210691,
72168.8,51.69999999999709,0.10,0.15,0.66,-1.49,0.65,-0.68,42.288980834255156,6.0737192868376795,2.5736496274914415,
72168.9,51.79999999998836,0.09,0.15,0.65,-1.49,0.76,-0.77,43.16741016090727,1.0183042569177323,1.4952044221751557,
72169.1,52.0,-0.25,-0.84,0.35,-0.21,-0.15,0.26,43.04028229461326,1.0077804495786167,1.510118233029993,
72169.2,52.09999999999127,-0.26,-0.83,0.33,-0.13,-0.21,0.25,43.03985362428641,0.994801668246231,1.510583163749762,
72169.3,52.19999999999709,-0.27,-0.87,0.41,-0.01,-0.03,0.09,42.41121903459036,1.0226621834085006,1.4803668357798694,
72169.4,52.29999999998836,-0.26,-0.85,0.41,0.03,0.04,0.01,43.751873102759845,1.0093777898337586,1.4916313351303638,
72169.5,52.39999999999418,-0.24,-0.86,0.43,-0.34,-0.06,0.29,42.53011756390993,0.9990902251980901,1.486520960364821,
72169.6,52.5,-0.22,-0.88,0.48,-0.43,-0.02,0.32,43.132339375461655,1.0455139062898038,1.510712430512466,
72169.7,52.59999999999127,-0.20,-0.89,0.50,-0.39,-0.01,0.30,43.255853939091296,1.0011314358259689,1.4879381849438622,
72169.8,52.69999999999709,-0.20,-0.89,0.51,-0.31,-0.03,0.22,42.242862118942654,0.9977209322164372,1.5156110732760328,
72169.9,52.79999999998836,-0.19,-0.88,0.50,-0.24,-0.04,0.15,42.48712863915377,1.0046999633592204,1.5133355544778446,
72170.1,53.0,-0.26,-0.83,0.39,0.16,-0.11,0.16,42.937657132172454,0.9585787966016568,1.50367194093333,
72170.2,53.09999999999127,-0.26,-0.82,0.40,0.04,-0.03,0.08,42.40557274698693,0.9936087184572898,1.5054281805006589,
72170.3,53.19999999999709,-0.28,-0.82,0.42,-0.09,0.15,-0.11,43.7971699998984,0.9540867903595392,1.4962933890974228,
72170.4,53.29999999998836,-0.30,-0.83,0.42,-0.09,0.17,-0.13,42.716252176425776,0.9806491983310874,1.5288796278621868,
72170.5,53.39999999999418,-0.31,-0.84,0.41,0.03,-0.01,0.04,42.583724590505234,0.9641518152341347,1.5327444413139923,
72170.6,53.5,-0.32,-0.84,0.41,-0.08,0.12,-0.10,43.5731121220415,0.9550159950965844,1.4922267438260906,
72170.7,53.59999999999127,-0.33,-0.84,0.41,-0.07,0.18,-0.16,43.39075592796235,0.9585956045412087,1.517534001464162,
72170.8,53.69999999999709,-0.33,-0.84,0.40,-0.02,0.15,-0.18,43.14763840582703,0.9562114327915484,1.521874949929875,
72170.9,53.79999999998836,-0.33,-0.84,0.39,-0.01,0.13,-0.18,43.27355774604164,0.9612447822324658,1.5370510743409806,
72171.1,54.0,-0.32,-0.85,0.39,-0.00,-0.03,0.02,42.408731412292916,0.942346931355056,1.540137459189759,
72171.2,54.09999999999127,-0.31,-0.85,0.39,-0.02,0.00,0.00,44.08583786206178,0.9537661668234731,1.5324526257232027,
72171.3,54.19999999999709,-0.31,-0.85,0.39,0.02,0.08,-0.02,42.72358131055963,0.9582276833902735,1.5258411333440893,
72171.4,54.29999999998836,-0.31,-0.85,0.40,0.02,0.04,0.01,43.25743519904989,0.9839494209671477,1.5180641897612956,
72171.5,54.39999999999418,-0.31,-0.84,0.38,-0.00,-0.03,0.01,41.86932409294423,0.9848528369097124,1.4969281199251232,
72171.6,54.5,-0.31,-0.85,0.38,-0.00,-0.03,0.01,44.06651903656562,0.9872070354929942,1.5122149749971,
72171.7,54.59999999999127,-0.30,-0.85,0.40,-0.00,-0.03,0.01,44.53525457432572,0.9891582947394101,1.5085582383952043,
72171.8,54.69999999999709,-0.30,-0.85,0.40,0.05,0.15,-0.01,43.22924357422878,0.9226208409761587,1.5446536365369843,
72171.9,54.79999999998836,-0.30,-0.85,0.40,-0.01,0.07,-0.08,43.813168111881616,0.9536289864354428,1.5175908690369453,
72172.1,55.0,-0.28,-0.83,0.38,-0.01,-0.12,0.05,42.331215432585914,0.9667179377989384,1.5173824339676647,
72172.2,55.09999999999127,-0.33,-0.86,0.41,0.01,-0.11,0.02,43.12688488634439,0.9287365411619899,1.4990858396878664,
72172.3,55.19999999999709,-0.29,-0.86,0.39,0.02,-0.18,0.06,43.124257674770476,0.9677194882523696,1.5141854098131025,
72172.4,55.29999999998836,-0.34,-0.84,0.41,0.02,-0.17,0.06,44.12801037889653,0.9691874066074082,1.5043497058725832,
72172.5,55.39999999999418,-0.34,-0.84,0.40,0.01,-0.16,0.06,43.10684516408038,0.9677194882523696,1.521828617209164,
72172.6,55.5,-0.31,-0.86,0.39,0.00,-0.14,0.05,43.05092914212189,0.9623555068675264,1.5331575905905135,
72172.7,55.59999999999127,-0.28,-0.84,0.38,-0.05,0.09,-0.01,43.28249761739726,0.9624577614737211,1.5248030989819754,
72172.8,55.69999999999709,-0.28,-0.84,0.38,0.02,-0.09,0.04,43.71918343244759,0.9540867903595392,1.5261786787542337,
72172.9,55.79999999998836,-0.28,-0.83,0.38,-0.01,0.01,0.02,44.368615033602296,0.9628490592665303,1.4900208502466386,
72173.1,56.0,-0.27,-0.78,0.33,-0.03,-0.10,-0.09,42.53713906693773,0.9476149407323985,1.4980898835642682,
72173.2,56.09999999999127,-0.40,-0.90,0.44,0.15,-0.15,0.03,41.95237895519156,0.9601878413078947,1.4977916508853557,
72173.3,56.19999999999709,-0.29,-0.86,0.37,0.18,-0.12,0.06,43.401498822045305,0.944582696818234,1.4930710030190988,
72173.4,56.29999999998836,-0.23,-0.84,0.39,0.18,-0.07,0.09,41.90988188959735,0.9503518275815065,1.4773650336113964,
72173.5,56.39999999999418,-0.35,-0.87,0.40,0.16,-0.01,0.10,43.36236617160092,0.9663912471865816,1.5126486548220106,
72173.6,56.5,-0.32,-0.88,0.42,0.12,0.04,0.10,42.69662984358367,0.9414653548600285,1.513383212412416,
72173.7,56.59999999999127,-0.25,-0.79,0.32,0.00,-0.06,0.01,42.565967626732046,0.9871012282596191,1.5134420979881762,
72173.8,56.69999999999709,-0.25,-0.78,0.32,-0.01,0.06,-0.04,43.53670405531406,0.9431851748453455,1.499301455563128,
72173.9,56.79999999998836,-0.26,-0.78,0.32,-0.05,-0.08,-0.10,42.53759983826074,0.9661307772930181,1.5051601769797645,
72174.1,57.0,-0.30,-0.86,0.39,0.01,0.02,-0.01,42.5283681793694,0.9706334857916656,1.5006679835533487,
72174.2,57.09999999999127,-0.30,-0.86,0.39,0.01,0.02,-0.01,43.68511874769256,0.9765620857398858,1.5149129840983087,
72174.3,57.19999999999709,-0.31,-0.86,0.38,0.01,0.02,-0.01,42.97522425770458,0.9859740850824105,1.4642545381923886,
72174.4,57.29999999998836,-0.31,-0.86,0.39,0.01,0.01,-0.02,43.39665079242867,0.9708864755265277,1.5133870971477503,
72174.5,57.39999999999418,-0.32,-0.86,0.37,0.01,-0.00,-0.02,42.386622889775026,0.9651619878150249,1.513199154720216,
72174.6,57.5,-0.31,-0.86,0.38,-0.00,0.02,-0.01,43.564913634712966,0.9657166172422056,1.5296966461169477,
72174.7,57.59999999999127,-0.31,-0.86,0.37,0.00,0.02,-0.01,42.72625656431886,0.9304659044564515,1.7183129863664548,
72174.8,57.69999999999709,-0.30,-0.86,0.39,2.80,-0.36,0.99,43.3469606777684,0.82594954814359,1.9374597506954456,
72174.9,57.79999999998836,-0.31,-0.86,0.37,0.01,-0.01,-0.02,42.73085770260176,0.9806491983310874,1.5213974026039465,
72175.1,58.0,-0.28,-0.18,0.64,2.14,-0.89,1.13,43.52230347764236,6.228790619513281,2.4384707397640506,
72175.2,58.09999999999127,-0.25,-0.12,0.63,2.09,-0.95,1.10,42.6862612558186,0.25243301343768443,2.3318478751745295,
72175.3,58.19999999999709,-0.24,-0.10,0.60,2.51,-0.81,1.26,42.7679061914422,0.2887932364991692,2.3210436151832488,
72175.4,58.29999999998836,-0.23,-0.06,0.56,2.47,-0.79,1.25,44.347624513608395,5.82841166047049,2.5233965733878705,
72175.5,58.39999999999418,-0.28,-0.16,0.64,2.42,-0.78,1.23,43.25749530428224,5.769979205714726,2.5530729873257605,
72175.6,58.5,-0.27,-0.15,0.65,2.30,-0.79,1.20,44.55375405058478,0.15953290307134751,2.398218734652381,
72175.7,58.59999999999127,-0.18,0.06,0.59,2.25,-0.80,1.18,44.06618317939506,0.10182359684583897,2.4344482278237725,
72175.8,58.69999999999709,0.05,0.40,0.90,2.17,-0.86,1.14,43.65937241876021,5.8180789100086185,2.545105053937821,
72175.9,58.79999999998836,-0.13,0.09,0.59,-0.01,-0.04,0.01,43.855956265939525,0.05710088008096094,2.437606521322441,
72176.1,59.0,0.07,0.37,0.88,-0.14,-0.19,-0.16,43.31194061687839,5.807063945615002,2.5536852513401223,
72176.2,59.09999999999127,0.07,0.37,0.88,-0.07,-0.09,-0.01,43.68801323017562,5.793684717762913,2.5822439958118615,
72176.3,59.19999999999709,0.08,0.37,0.87,-0.07,-0.07,-0.02,43.69971853456266,5.845062470736524,2.5648081687360405,
72176.4,59.29999999998836,0.07,0.38,0.87,-0.09,-0.06,-0.12,43.56015725407795,5.813623887986175,2.552587540908571,
72176.5,59.39999999999418,0.06,0.39,0.88,-0.09,-0.06,-0.14,44.170728995569,5.939115342035789,2.5377672044914403,
72176.6,59.5,0.06,0.40,0.89,-0.12,-0.11,-0.16,43.402255701748956,5.7711039115526885,2.534632890861018,
72176.7,59.59999999999127,0.07,0.37,0.89,-1.98,0.54,-1.21,43.81949452013338,0.23586037480966868,2.473923456589363,
72176.8,59.69999999999709,0.05,0.37,0.95,-2.64,0.52,-1.34,45.16599938006465,5.834594133403359,2.5484060147018885,
72176.9,59.79999999998836,0.05,0.36,0.96,-2.74,0.16,-0.97,45.16599938006465,5.834594133403359,2.5484060147018885,
72177.1,60.0,-0.15,-0.88,0.98,-1.76,-0.27,-0.93,45.01979231404783,0.9979638056921093,1.9001307670165726,
72177.2,60.09999999999127,-0.16,-0.90,0.98,-1.63,-0.31,-1.01,43.08549059718364,1.0893065124314454,1.6723972929506568,
72177.3,60.19999999999709,-0.16,-0.91,0.97,-1.51,-0.26,-1.00,43.86992819688676,1.0201207758826454,1.8526064513272533,
72177.4,60.29999999998836,-0.18,-0.91,0.95,-1.84,0.09,-0.86,43.39832024399101,1.0304177112701909,1.8301558398141105,
72177.5,60.39999999999418,-0.19,-0.90,0.91,-1.82,0.02,-0.86,42.86840794804491,1.0155368126022113,1.4449641789220784,
72177.6,60.5,-0.21,-0.90,0.88,-1.81,-0.11,-0.86,43.946079461085034,1.0539009468144762,1.8339132491228447,
72177.7,60.59999999999127,-0.20,-0.90,0.87,-1.80,-0.17,-0.86,43.02550871285544,1.0425537602839772,1.4720899318948002,
72177.8,60.69999999999709,-0.16,-0.87,0.96,-1.04,0.55,-0.33,43.32749127286277,1.006376984338802,1.4841377742085733,
72177.9,60.79999999998836,-0.16,-0.88,0.96,-1.01,0.61,-0.26,43.68727503518616,0.9863086472605674,1.9212771154308441,
72178.1,61.0,-0.30,-0.86,0.35,0.03,-0.06,0.01,41.30224691224438,1.017769996739726,1.4679573008190339,
72178.2,61.09999999999127,-0.29,-0.87,0.35,0.03,-0.07,0.00,42.937672270396774,0.9978428627572322,1.4793739063347044,
72178.3,61.19999999999709,-0.29,-0.87,0.36,0.03,-0.09,-0.03,43.477656330579734,1.0158241798201504,1.4687277775165932,
72178.4,61.29999999998836,-0.29,-0.87,0.35,-0.02,0.02,0.10,42.645846222111714,0.9927660168327657,1.504857024566798,
72178.5,61.39999999999418,-0.30,-0.86,0.35,0.01,-0.09,-0.05,42.89128233102853,0.995716760127842,1.478806484668404,
72178.6,61.5,-0.30,-0.87,0.37,-0.02,-0.07,-0.07,42.23637531796497,0.989325265912854,1.4740462596155977,
72178.7,61.59999999999127,-0.30,-0.87,0.37,-0.04,-0.06,-0.07,42.7111531101655,1.0037965709066317,1.4772416917587985,
72178.8,61.69999999999709,-0.30,-0.87,0.36,-0.04,-0.05,-0.06,43.46428994013361,0.9715186549015217,1.4823325991269054,
72178.9,61.79999999998836,-0.30,-0.86,0.36,-0.04,-0.04,-0.06,43.22135814617583,1.0183042569177323,1.480207945610375,
72179.1,62.0,-0.31,-0.84,0.36,-0.03,-0.11,0.07,42.09940854691429,0.9720819726749436,1.48541828151064,
72179.2,62.09999999999127,-0.31,-0.85,0.36,-0.01,-0.10,0.08,42.1617207903093,0.971797919637842,1.5283279896008422,
72179.3,62.19999999999709,-0.30,-0.85,0.36,-0.02,-0.10,0.08,43.06519824637987,0.9882867531740391,1.4880365289991522,
72179.4,62.29999999998836,-0.30,-0.85,0.37,-0.07,-0.10,0.03,42.76105120316852,0.9697059767148929,1.4829868999320361,
72179.5,62.39999999999418,-0.30,-0.85,0.38,-0.08,-0.09,0.01,43.386455259677525,0.9560888879185597,1.4805535993483854,
72179.6,62.5,-0.31,-0.85,0.39,-0.00,0.02,0.01,43.16871668233838,0.9899548911536168,1.4798645674188093,
72179.7,62.59999999999127,-0.31,-0.86,0.39,0.01,-0.01,-0.00,43.09235895144289,0.97956229909139,1.4799360170298987,
72179.8,62.69999999999709,-0.31,-0.86,0.39,-0.08,-0.09,-0.01,43.65102289752211,0.962387091478681,1.4861612198406497,
72179.9,62.79999999998836,-0.31,-0.86,0.38,-0.03,-0.06,-0.04,43.917037696092386,0.980761592939879,1.465631938691118,
72181.5,64.39999999999418,-0.31,-0.87,0.37,0.05,-0.10,0.05,42.94138563204499,0.9859740850824105,1.4718959316705393,
72181.6,64.5,-0.33,-0.87,0.37,-0.06,-0.00,-0.11,43.05599725938304,0.9851838995742247,1.4954742839452255,
72181.7,64.59999999999127,-0.32,-0.86,0.38,-0.03,0.02,-0.06,42.18753962961102,0.9849702136768085,1.490591922089127,
72181.8,64.69999999999709,-0.28,-0.85,0.38,0.15,0.10,-0.04,44.40127025209977,0.9686253923843955,1.4860125261789774,
72181.9,64.79999999998836,-0.27,-0.77,0.31,0.01,-0.03,-0.19,43.12983190321984,0.9631934479251769,1.4993232014989004,
72182.1,65.0,-0.33,-0.86,0.35,0.01,0.07,0.01,41.51056010221977,0.9749609852630869,1.5081206362640232,
72182.2,65.09999999999127,-0.34,-0.87,0.36,0.07,-0.08,0.05,43.375332851748816,0.9541458798491536,1.5050434095091307,
72182.3,65.19999999999709,-0.34,-0.87,0.36,0.04,-0.06,0.01,42.22272966069342,0.9781190140812894,1.5025336175263004,
72182.4,65.29999999998836,-0.33,-0.87,0.36,0.00,0.08,0.00,43.03369377592399,0.9663720778643918,1.492172239470005,
72182.5,65.39999999999418,-0.33,-0.87,0.37,-0.08,0.10,-0.10,43.414198138397076,0.9667125825304255,1.4956349376300913,
72182.6,65.5,-0.33,-0.87,0.38,-0.10,0.10,-0.11,42.801549037388824,0.9802599448858726,1.4985398191508323,
72182.7,65.59999999999127,-0.32,-0.87,0.38,-0.10,0.10,-0.11,43.34539998661911,0.9839494209671477,1.4881097508460237,
72182.8,65.69999999999709,-0.31,-0.87,0.38,-0.10,0.09,-0.11,42.539319458590306,1.0096443366815544,1.4778071016716092,
72182.9,65.79999999998836,-0.29,-0.86,0.39,-0.09,-0.05,-0.04,43.44823816911337,0.9676889385343208,1.4986941247111825,
72183.1,66.0,-0.40,-0.86,0.66,0.95,-0.69,0.28,42.92626701682782,0.9769693003712844,1.513924019627952,
72183.2,66.09999999999127,-0.38,-0.86,0.67,2.10,-0.69,0.70,43.7253633489763,0.9380845146604879,1.6571234917107736,
72183.3,66.19999999999709,-0.40,-0.87,0.65,0.09,-1.24,-0.08,42.70192969878527,0.9752486602333718,1.5173775531694198,
72183.4,66.29999999998836,-0.35,-0.88,0.81,0.19,-1.38,-0.09,44.06432570685725,0.9859494815166877,1.4967459197394613,
72183.5,66.39999999999418,-0.34,-0.92,0.89,0.06,-1.21,-0.08,42.01132704402468,0.4102108850565992,2.3916198791701317,
72183.6,66.5,-0.34,-0.93,0.91,0.42,-1.24,-0.07,43.21644478667814,1.006376984338802,1.521952901376807,
72183.7,66.59999999999127,-0.35,-0.96,0.93,0.58,-1.08,-0.02,43.33196164495672,0.9990701632306004,1.523469471562811,
72183.8,66.69999999999709,-0.36,-0.96,0.93,0.73,-0.91,0.06,43.0079690290067,5.948012740042853,2.5618235130106655,
72183.9,66.79999999998836,-0.38,-0.95,0.92,0.86,-0.77,0.16,43.8447408476775,0.970131363435881,1.5299591001068207,
72184.1,67.0,0.00,0.23,1.05,0.16,0.13,-0.02,42.855891076956965,5.935347042469137,2.5264489383437567,
72184.2,67.09999999999127,0.02,0.29,1.05,0.18,0.03,-0.06,44.97719644442059,5.940540145054447,2.507722934719407,
72184.3,67.19999999999709,0.05,0.39,0.99,0.01,-0.03,-0.06,43.66532377069933,5.958640754465336,2.534790287590872,
72184.4,67.29999999998836,-0.02,0.19,1.06,-0.02,-0.09,-0.00,43.45198844702046,5.93237536259407,2.5245839252032516,
72184.5,67.39999999999418,-0.01,0.21,1.06,-0.07,-0.12,0.02,43.886389689743226,5.905273155897111,2.5537673895454427,
72184.6,67.5,0.04,0.46,0.98,0.12,0.21,-0.00,42.63652190317592,5.952695568490317,2.547037536875457,
72184.7,67.59999999999127,0.00,0.42,1.00,0.13,-0.03,-0.11,44.298431123460794,5.948481131989391,2.537961228522176,
72184.8,67.69999999999709,-0.02,0.38,0.99,0.12,0.04,-0.09,43.972487989650986,5.956216523451505,2.541107081676865,
72184.9,67.79999999998836,-0.04,0.32,0.99,0.10,0.07,-0.04,44.759201288673594,6.013546252248126,2.5387747650033408,
72185.1,68.0,0.04,-0.07,0.81,-1.78,0.27,-0.54,42.541484459289855,0.03737809555142673,2.577469004467628,
72185.2,68.09999999999127,0.02,-0.09,0.84,-1.80,0.30,-0.64,43.556792811225215,0.5670758749320889,2.4203315293487626,
72185.3,68.19999999999709,-0.00,-0.13,0.88,-2.24,0.18,-0.60,43.21621107871443,0.06737972992065062,2.603986407035018,
72185.4,68.29999999998836,-0.02,-0.15,0.88,-1.82,0.19,-0.38,43.976094642430446,0.14855442641085606,2.5756713535742874,
72185.5,68.39999999999418,-0.02,-0.19,0.93,-1.83,0.29,-0.73,43.65627331781768,0.973867785808404,1.898944376826648,
72185.6,68.5,0.02,-0.09,0.80,-1.79,0.44,-0.80,44.265441373604304,0.17421578644294414,2.565463011674503,
72185.7,68.59999999999127,0.01,-0.09,0.80,-1.77,0.19,-0.47,42.01981556361237,0.013762571878874991,2.5551965620990464,
72185.8,68.69999999999709,-0.08,-0.26,0.95,-1.77,0.24,-0.50,42.65690682644488,1.029035091204239,1.4211417235039896,
72185.9,68.79999999998836,-0.11,-0.25,0.94,-1.75,0.76,-0.79,41.84485870450515,1.0783465745258083,1.512452603938792,
72186.1,69.0,-0.22,-0.86,0.41,-0.12,-0.33,0.11,43.33208857186554,1.0569578660492664,1.5031273679906176,
72186.2,69.09999999999127,-0.23,-0.87,0.40,0.06,-0.18,-0.13,43.8721483403765,1.0597651211006105,1.4861313134541472,
72186.3,69.19999999999709,-0.25,-0.87,0.36,0.09,-0.11,-0.15,42.1871757765319,1.0524774155267047,1.472742228390988,
72186.4,69.29999999998836,-0.27,-0.86,0.34,0.10,-0.04,-0.16,42.353126212831086,1.0467034021003456,1.4667201036690527,
72186.5,69.39999999999418,-0.28,-0.86,0.31,-0.01,-0.03,0.01,42.60245180737841,1.0629634059367847,1.4557606532792025,
72186.6,69.5,-0.29,-0.85,0.31,-0.02,-0.05,0.00,42.36348427596578,1.0451139730438568,1.4653215209130923,
72186.7,69.59999999999127,-0.20,-0.85,0.43,0.08,0.02,-0.15,42.48253405812793,1.029035091204239,1.4514051175154934,
72186.8,69.69999999999709,-0.20,-0.86,0.42,-0.06,0.01,-0.09,42.81116910340105,1.0443436355412188,1.473706543704923,
72186.9,69.79999999998836,-0.29,-0.85,0.32,-0.09,-0.03,-0.08,42.8105314145947,1.0407620903724188,1.4730009906188961,
72187.1,70.0,-0.26,-0.89,0.36,-0.00,0.02,0.01,43.2320818374503,1.0509579315928534,1.46721577087444,
72187.2,70.09999999999127,-0.26,-0.88,0.36,-0.00,0.02,0.00,42.02334946193604,1.0603998038881028,1.4723587314202589,
72187.3,70.19999999999709,-0.26,-0.88,0.35,-0.00,-0.01,-0.00,44.08034822911452,1.0642290543681698,1.475598907853498,
72187.4,70.29999999998836,-0.26,-0.88,0.36,-0.00,-0.01,-0.00,41.5134737163731,1.0636508365453374,1.480340905597923,
72187.5,70.39999999999418,-0.26,-0.89,0.37,-0.01,0.00,0.01,42.27186889646589,1.0590290632773296,1.4624748967498669,
72187.6,70.5,-0.26,-0.88,0.36,0.01,-0.03,0.01,42.27186889646589,1.0590290632773296,1.4624748967498669,
72187.7,70.59999999999127,-0.26,-0.88,0.35,-0.01,0.00,0.00,43.306163533612626,1.0593783891985482,1.4926679315057378,
72187.8,70.69999999999709,-0.26,-0.89,0.36,-0.00,-0.02,-0.00,43.053322752140744,1.0577699806874834,1.4551001443531886,
72187.9,70.79999999998836,-0.26,-0.88,0.36,-0.00,-0.02,-0.00,43.54691033816291,1.0569578660492664,1.4506366527090941,
72188.1,71.0,-0.26,-0.88,0.36,0.01,0.00,-0.01,42.499876470408715,1.054665514162579,1.49236276436954,
72188.2,71.09999999999127,-0.26,-0.87,0.36,0.01,-0.00,-0.01,44.22445590394528,1.0199193330080831,1.4301390567427485,
72188.3,71.19999999999709,-0.25,-0.88,0.36,-0.24,-0.21,0.11,43.35557634261134,1.048259031157928,1.4756245744701804,
72188.4,71.29999999998836,-0.26,-0.88,0.37,0.02,-0.05,0.02,44.087119434138586,1.0304946075296177,1.435194258173324,
72188.5,71.39999999999418,-0.26,-0.88,0.36,0.40,0.12,-0.12,43.79626924750555,1.055474176558763,1.4476437491718672,
72188.6,71.5,-0.24,-0.86,0.40,0.40,-0.06,-0.25,43.35456262032867,1.0852762390393753,1.556033791826599,
72188.7,71.59999999999127,-0.26,-0.88,0.36,0.22,-0.07,0.06,43.14692688940894,1.0501750313900582,1.4597842025516057,
72188.8,71.69999999999709,-0.26,-0.88,0.36,0.03,-0.05,0.03,42.56794216308794,1.045237040544415,1.4710254126229847,
72188.9,71.79999999998836,-0.26,-0.88,0.37,0.01,-0.05,0.05,43.202613346879836,1.0784251603973054,1.6273044602212752,
72189.1,72.0,-0.17,-0.78,0.51,0.89,-0.17,-0.25,42.44013312891467,1.1107511603582452,1.6753691452762625,
72189.2,72.09999999999127,-0.19,-0.80,0.53,1.91,0.23,-0.09,44.91501419347432,1.0976204204004116,1.691314922671071,
72189.3,72.19999999999709,-0.19,-0.76,0.57,0.28,-0.09,-0.17,42.718635277826934,1.1258676318430298,1.9514211324694477,
72189.4,72.29999999998836,-0.20,-0.78,0.58,0.25,-0.03,-0.14,44.026371642459935,1.2283882010858895,1.9785852047077799,
72189.5,72.39999999999418,-0.18,-0.72,0.60,0.35,0.12,-0.00,45.30079690248285,1.0953108306833588,1.6940641590343346,
72189.6,72.5,-0.17,-0.67,0.57,-0.47,-2.17,2.98,43.34573335404536,1.0557580367351824,2.0705058210201277,
72189.7,72.59999999999127,-0.16,-0.65,0.51,1.45,-1.34,5.17,44.737123287042046,1.088710662387514,1.6956253611082759,
72189.8,72.69999999999709,-0.19,-0.72,0.48,0.42,0.04,-0.00,43.493908768929934,0.09697988460362111,2.345365588267208,
72189.9,72.79999999998836,-0.18,-0.72,0.50,0.67,-0.13,-0.27,44.4391640335414,1.0936661609187592,1.6912516831934288,
72190.1,73.0,-0.20,-0.08,0.92,0.06,-0.45,3.42,44.40390635968867,5.5991925086640775,2.387970570191513,
72190.2,73.09999999999127,-0.06,-0.13,0.60,1.36,1.07,3.95,43.87422705871865,5.562798319842142,2.4009257353145315,
72190.3,73.19999999999709,-0.31,0.25,0.97,-0.56,1.08,1.12,43.24981156028313,4.7886941214979775,2.3350883963522664,
72190.4,73.29999999998836,-0.15,0.28,1.15,0.62,0.36,1.71,43.81255299568835,5.550999817217105,2.4024666382534234,
72190.5,73.39999999999418,-0.08,0.02,1.11,-0.40,-0.53,1.99,43.68142511411458,5.523113452412572,2.405766036543349,
72190.6,73.5,-0.08,0.02,1.06,0.86,0.63,1.80,42.61326084683029,4.637447086441054,2.534553457798423,
72190.7,73.59999999999127,-0.07,0.06,1.08,-0.22,-0.09,3.77,43.311107120460456,5.4634210081858905,2.426454464737042,
72190.8,73.69999999999709,-0.05,0.03,1.05,0.76,0.52,1.74,43.15143798299194,5.431218980006314,2.436784580378624,
