time,ax,ay,az,gx,gy,gz,mx,my,mz,
71977.4,-0.22,-0.32,0.88,0.01,0.02,-0.03,30.36,12.86,-27.66,
71977.5,-0.22,-0.33,0.91,-0.00,0.03,-0.01,30.60,12.76,-25.84,
71977.6,-0.22,-0.32,0.90,-0.00,-0.00,0.01,30.44,12.91,-27.57,
71977.7,-0.21,-0.33,0.90,-0.00,0.01,0.00,30.94,11.75,-28.46,
71977.8,-0.22,-0.32,0.90,-0.00,0.02,0.01,30.60,12.43,-25.84,
71977.9,-0.22,-0.32,0.90,0.01,0.02,-0.00,30.27,12.43,-27.13,
71978.1,-0.23,-0.32,0.90,-0.00,0.03,-0.01,30.92,12.44,-27.45,
71978.2,-0.21,-0.32,0.90,0.01,-0.01,-0.02,30.27,12.09,-27.80,
71978.3,-0.23,-0.33,0.89,-0.00,0.03,-0.00,30.17,12.43,-27.10,
71978.4,-0.23,-0.33,0.90,-0.02,-0.03,0.01,28.43,11.92,-27.64,
71978.5,-0.22,-0.33,0.90,-0.01,-0.02,0.01,29.60,12.43,-26.82,
71978.6,-0.22,-0.32,0.90,0.00,0.03,-0.01,30.08,13.32,-27.13,
71978.7,-0.22,-0.32,0.90,0.01,0.03,-0.01,29.68,11.83,-26.90,
71978.8,-0.22,-0.32,0.89,0.01,0.02,-0.01,30.46,12.90,-26.55,
71978.9,-0.22,-0.33,0.90,-0.00,0.03,-0.01,29.85,11.31,-27.02,
71979.1,-0.22,-0.32,0.90,-0.01,-0.01,0.00,27.93,11.75,-27.15,
71979.2,-0.21,-0.33,0.90,-0.00,0.02,-0.00,29.36,12.82,-27.95,
71979.3,-0.22,-0.32,0.90,-0.00,-0.00,-0.00,28.81,12.00,-27.15,
71979.4,-0.22,-0.32,0.90,-0.00,-0.01,0.00,29.60,12.60,-26.48,
71979.5,-0.21,-0.32,0.90,-0.01,-0.01,0.00,30.26,12.41,-27.15,
71979.6,-0.21,-0.33,0.90,-0.01,-0.01,0.00,28.43,11.25,-27.97,
71979.7,-0.21,-0.32,0.91,-0.03,0.03,0.01,29.10,11.92,-26.99,
71979.8,-0.21,-0.32,0.90,-0.04,-0.08,0.01,29.93,12.09,-27.15,
71979.9,-0.21,-0.32,0.90,0.02,-0.03,-0.01,30.43,11.92,-26.66,
71980.1,-0.21,-0.30,0.90,0.01,-0.01,0.00,29.93,11.42,-27.48,
71980.2,-0.22,-0.30,0.91,-0.00,-0.03,0.00,29.50,12.71,-27.24,
71980.3,-0.20,-0.33,0.91,-0.02,-0.07,0.01,29.98,12.34,-27.17,
71980.4,-0.19,-0.37,0.91,-0.02,-0.07,0.01,28.93,11.75,-29.11,
71980.5,-0.14,-0.36,0.92,-0.02,-0.07,0.01,28.93,13.77,-28.13,
71980.6,-0.20,-0.30,0.90,-0.03,-0.07,0.00,29.26,13.77,-29.11,
71980.7,-0.19,-0.31,0.90,-0.03,-0.07,-0.00,28.93,12.26,-28.24,
71980.8,-0.22,-0.30,0.91,0.57,-0.50,0.06,26.87,12.90,-30.32,
71980.9,-0.06,-0.31,1.22,-0.03,-0.08,-0.01,25.51,10.59,-31.19,
71981.1,0.01,-0.15,1.17,1.57,-0.25,-0.08,20.95,1.29,-36.27,
71981.2,0.04,-0.18,1.18,1.53,-0.78,-0.14,22.42,5.87,-34.18,
71981.3,0.02,-0.16,1.18,1.55,-0.52,-0.14,22.08,4.86,-35.49,
71981.4,0.19,0.39,0.78,1.55,-0.44,-0.12,16.24,-16.16,-36.63,
71981.5,0.16,0.48,0.70,1.55,-0.38,-0.11,21.97,3.82,-35.82,
71981.6,0.19,0.46,0.74,1.56,-0.32,-0.09,18.24,-19.86,-34.67,
71981.7,-0.01,-0.09,1.11,1.57,-0.28,-0.08,18.58,-21.97,-33.69,
71981.8,-0.02,-0.08,1.02,0.25,-0.39,-0.30,21.89,3.30,-35.99,
71981.9,-0.04,-0.06,0.98,0.18,-0.09,-0.19,18.74,-23.35,-33.48,
71982.1,0.17,0.62,0.69,-0.04,-0.24,-0.11,18.03,-23.48,-32.42,
71982.2,0.17,0.62,0.68,0.08,-0.14,-0.10,18.61,-23.09,-32.61,
71982.3,0.16,0.61,0.66,0.03,-0.04,-0.07,19.49,-22.98,-32.76,
71982.4,0.15,0.59,0.64,-0.02,-0.10,-0.12,18.74,-20.37,-32.54,
71982.5,0.14,0.59,0.70,-0.02,-0.15,-0.13,19.58,-22.89,-33.03,
71982.6,0.15,0.60,0.68,-0.03,-0.24,-0.12,16.98,-20.66,-35.40,
71982.7,0.17,0.60,0.68,-0.04,-0.26,-0.11,17.35,-22.87,-34.77,
71982.8,0.17,0.64,0.70,0.02,0.20,-0.05,18.24,-21.88,-35.32,
71982.9,0.14,0.62,0.76,-0.08,-0.27,-0.01,18.58,-22.55,-31.40,
71983.1,0.17,0.59,0.76,-0.13,-0.14,0.11,16.91,-20.87,-35.32,
71983.2,0.17,0.58,0.77,-0.10,-0.05,0.14,17.06,-20.11,-35.17,
71983.3,0.20,0.58,0.82,-0.07,0.05,0.15,16.57,-21.88,-34.01,
71983.4,0.20,0.58,0.81,-0.02,0.21,0.14,16.95,-22.23,-34.51,
71983.5,0.19,0.58,0.80,-0.00,0.25,0.13,17.10,-20.13,-35.11,
71983.6,0.18,0.60,0.77,0.02,0.31,0.11,17.58,-26.25,-31.73,
71983.7,0.19,0.61,0.76,0.04,0.32,0.09,17.41,-21.38,-34.51,
71983.8,0.22,0.62,0.70,-0.12,-0.19,0.09,18.61,-22.71,-32.26,
71983.9,0.21,0.63,0.70,-0.13,-0.17,0.10,16.57,-20.54,-33.36,
71984.1,0.03,0.17,0.88,-1.08,0.82,-0.27,23.05,-10.95,-35.32,
71984.2,0.15,0.24,0.90,-1.51,0.45,-0.37,18.91,-13.14,-36.30,
71984.3,0.05,0.24,0.83,-1.04,0.38,-0.07,24.09,0.15,-33.20,
71984.4,-0.00,0.28,0.87,-1.01,0.48,-0.18,19.68,-12.93,-35.96,
71984.5,0.14,0.27,0.95,-1.04,0.62,-0.25,20.75,-12.63,-35.49,
71984.6,0.04,0.31,0.93,-1.05,0.59,-0.23,26.77,13.12,-29.61,
71984.7,0.15,0.25,0.92,-1.06,0.60,-0.22,21.41,-12.45,-35.43,
71984.8,0.08,0.24,0.93,-1.07,0.65,-0.23,22.59,-12.13,-35.32,
71984.9,0.05,0.18,0.89,-0.17,-0.06,-0.02,29.03,13.21,-28.79,
71985.1,-0.16,-0.33,0.89,-0.05,-0.03,-0.00,28.26,14.78,-28.13,
71985.2,-0.15,-0.32,0.88,0.01,0.07,-0.02,27.64,13.97,-28.83,
71985.3,-0.15,-0.32,0.89,-0.08,0.07,-0.08,26.71,12.65,-28.82,
71985.4,-0.16,-0.34,0.93,-0.06,0.09,-0.08,27.76,14.27,-29.93,
71985.5,-0.16,-0.34,0.92,-0.08,-0.00,-0.04,28.10,13.94,-28.95,
71985.6,-0.17,-0.34,0.92,-0.07,-0.01,-0.03,28.12,13.66,-29.33,
71985.7,-0.16,-0.34,0.93,-0.06,-0.01,-0.02,28.26,13.43,-29.11,
71985.8,-0.16,-0.33,0.93,-0.06,-0.02,-0.01,28.37,13.15,-27.26,
71985.9,-0.16,-0.33,0.93,0.00,0.05,-0.01,27.27,14.43,-30.36,
71986.1,-0.16,-0.32,0.92,-0.00,0.02,-0.00,27.16,14.31,-28.79,
71986.2,-0.16,-0.32,0.92,-0.02,-0.00,0.00,26.43,13.27,-28.62,
71986.3,-0.15,-0.32,0.92,-0.01,0.01,0.01,27.09,14.27,-28.62,
71986.4,-0.16,-0.32,0.91,-0.00,0.00,0.01,27.88,14.81,-28.39,
71986.5,-0.16,-0.32,0.92,0.01,-0.00,0.01,27.76,14.61,-30.26,
71986.6,-0.16,-0.32,0.91,-0.01,0.01,0.01,27.43,14.61,-27.97,
71986.7,-0.16,-0.32,0.91,-0.00,0.01,0.01,28.32,14.05,-28.29,
71986.8,-0.16,-0.32,0.91,-0.00,0.01,-0.00,27.93,13.10,-28.78,
71986.9,-0.16,-0.32,0.92,-0.00,0.02,-0.00,27.26,13.77,-29.11,
71987.1,-0.17,-0.31,0.91,-0.01,-0.01,0.00,27.60,14.84,-28.33,
71987.2,-0.17,-0.31,0.91,-0.01,-0.02,-0.01,28.76,14.27,-28.62,
71987.3,-0.17,-0.32,0.92,-0.01,-0.02,-0.01,28.76,14.55,-28.62,
71987.4,-0.17,-0.32,0.91,-0.01,-0.03,-0.01,28.29,13.79,-28.75,
71987.5,-0.17,-0.32,0.91,-0.01,-0.03,-0.01,28.13,14.11,-27.87,
71987.6,-0.16,-0.32,0.91,-0.01,-0.03,-0.00,27.43,13.60,-29.27,
71987.7,-0.16,-0.32,0.91,-0.01,-0.03,-0.00,27.94,14.76,-28.14,
71987.8,-0.16,-0.32,0.91,-0.07,-0.00,0.03,27.60,15.12,-27.80,
71987.9,-0.16,-0.32,0.91,-0.01,-0.02,0.00,28.48,14.52,-28.34,
71988.1,-0.10,-0.28,1.19,0.80,-0.42,0.44,28.26,13.10,-29.77,
71988.2,-0.12,-0.29,1.20,1.19,-0.82,0.55,28.16,13.72,-28.16,
71988.3,-0.14,-0.27,1.21,0.35,-0.37,0.20,25.42,2.50,-34.51,
71988.4,-0.14,-0.26,1.21,0.39,-0.35,0.20,21.04,-5.32,-36.58,
71988.5,-0.12,-0.28,1.19,0.58,-0.26,0.29,27.69,12.95,-28.67,
71988.6,-0.14,-0.25,1.22,0.63,-0.27,0.32,27.60,13.77,-29.11,
71988.7,-0.16,-0.26,1.22,0.32,-0.38,0.21,17.34,-19.59,-34.44,
71988.8,-0.16,-0.27,1.21,0.73,-0.31,0.39,28.01,13.35,-29.52,
71988.9,-0.16,-0.27,1.18,0.78,-0.38,0.43,18.08,-23.39,-32.87,
71989.1,0.11,0.49,0.61,0.20,-0.29,-0.47,19.79,-23.56,-31.41,
71989.2,0.12,0.54,0.62,0.16,-0.26,-0.33,18.58,-23.56,-30.42,
71989.3,0.13,0.57,0.61,0.14,-0.25,-0.31,18.20,-22.55,-31.91,
71989.4,0.13,0.58,0.63,-0.02,0.04,0.02,19.51,-24.12,-31.51,
71989.5,0.13,0.56,0.64,0.10,-0.27,-0.30,20.25,-24.57,-32.38,
71989.6,0.13,0.53,0.64,0.04,-0.31,-0.27,18.36,-22.81,-32.49,
71989.7,0.11,0.46,0.62,0.02,-0.32,-0.24,20.36,-23.29,-32.27,
71989.8,0.12,0.50,0.65,0.24,-0.28,-0.53,20.41,-22.72,-32.22,
71989.9,0.14,0.51,0.64,0.22,-0.29,-0.52,18.82,-23.60,-30.67,
71990.1,0.25,0.56,0.83,-0.19,-0.82,0.16,19.08,-23.06,-32.87,
71990.2,0.21,0.58,0.86,0.11,-0.00,0.28,16.38,-21.30,-35.20,
71990.3,0.23,0.52,0.57,0.08,1.19,0.49,15.16,-22.69,-34.00,
71990.4,0.24,0.52,0.74,-0.14,-0.68,0.16,16.24,-21.21,-35.32,
71990.5,0.21,0.54,0.73,-0.12,-0.62,0.16,21.61,-22.77,-29.46,
71990.6,0.23,0.57,0.72,-0.01,-0.06,0.17,22.72,-19.58,-31.39,
71990.7,0.23,0.58,0.86,-0.01,0.08,0.17,14.57,-22.22,-34.01,
71990.8,0.24,0.57,0.85,-0.01,0.20,0.18,14.59,-22.19,-34.07,
71990.9,0.22,0.53,0.68,-0.01,0.29,0.20,26.00,0.38,-33.51,
71991.1,-0.18,-0.09,1.13,-0.86,0.34,-0.16,27.36,7.44,-31.13,
71991.2,-0.11,-0.07,1.18,-0.85,0.27,-0.15,25.81,4.52,-33.25,
71991.3,-0.10,-0.11,1.16,-0.53,0.33,-0.07,25.42,4.52,-32.87,
71991.4,-0.12,-0.17,1.11,-0.83,0.10,-0.14,29.75,12.67,-27.92,
71991.5,-0.14,-0.18,1.09,-0.02,0.27,0.16,26.20,5.30,-32.62,
71991.6,-0.17,-0.19,1.07,-0.09,-0.18,-0.14,27.60,12.69,-29.94,
71991.7,-0.16,-0.16,1.07,-0.01,0.22,-0.02,26.43,5.74,-32.23,
71991.8,-0.15,-0.13,1.07,-0.79,0.14,-0.15,26.43,6.88,-30.58,
71991.9,-0.11,-0.09,1.08,-0.68,0.38,-0.10,27.91,13.94,-27.97,
71992.1,-0.19,-0.31,0.91,0.04,0.10,-0.00,28.93,13.10,-26.50,
71992.2,-0.19,-0.30,0.90,0.04,0.06,-0.01,28.10,13.94,-28.95,
71992.3,-0.20,-0.31,0.91,0.04,0.13,0.00,28.70,12.97,-27.70,
71992.4,-0.17,-0.30,0.91,-0.00,-0.01,0.00,27.93,13.10,-27.80,
71992.5,-0.17,-0.29,0.91,-0.01,0.02,0.01,28.10,13.94,-27.64,
71992.6,-0.17,-0.30,0.91,0.04,0.02,-0.01,29.53,13.70,-28.46,
71992.7,-0.16,-0.30,0.90,0.03,0.01,-0.00,30.27,13.77,-28.46,
71992.8,-0.17,-0.30,0.91,-0.01,0.00,0.01,28.76,14.27,-27.31,
71992.9,-0.17,-0.31,0.91,-0.00,-0.01,-0.01,28.89,13.10,-26.65,
71993.1,-0.18,-0.31,0.92,-0.01,-0.04,0.02,26.93,13.43,-27.80,
71993.2,-0.18,-0.32,0.92,-0.01,-0.04,0.02,28.35,13.41,-27.54,
71993.3,-0.17,-0.31,0.92,-0.02,-0.04,0.02,28.26,12.43,-27.80,
71993.4,-0.17,-0.32,0.92,-0.00,0.03,-0.00,28.73,12.90,-28.03,
71993.5,-0.17,-0.32,0.91,-0.01,0.00,0.00,28.29,13.18,-28.76,
71993.6,-0.17,-0.32,0.91,-0.02,-0.03,0.02,28.93,13.10,-28.13,
71993.7,-0.17,-0.32,0.91,-0.01,0.00,0.01,27.40,13.14,-27.91,
71993.8,-0.18,-0.31,0.92,-0.01,0.02,-0.00,29.26,13.43,-28.13,
71993.9,-0.18,-0.31,0.91,-0.01,0.02,-0.00,28.43,14.27,-27.31,
71994.1,-0.17,-0.32,0.92,-0.01,0.00,-0.00,28.19,15.11,-27.40,
71994.2,-0.17,-0.32,0.92,-0.01,-0.00,0.00,28.72,13.84,-28.10,
71994.3,-0.18,-0.32,0.91,-0.01,-0.00,0.00,28.60,13.10,-28.13,
71994.4,-0.17,-0.32,0.91,-0.01,0.00,0.00,28.50,13.28,-26.58,
71994.5,-0.17,-0.32,0.90,-0.01,-0.00,-0.00,28.84,12.99,-27.79,
71994.6,-0.18,-0.31,0.91,-0.01,0.01,0.01,29.43,12.59,-28.95,
71994.7,-0.18,-0.31,0.91,-0.01,-0.00,-0.00,29.10,13.37,-28.40,
71994.8,-0.18,-0.32,0.91,-0.01,-0.00,-0.00,28.93,13.77,-28.13,
71994.9,-0.18,-0.32,0.91,-0.01,-0.00,-0.00,29.44,14.35,-27.83,
71995.1,-0.17,-0.32,0.91,0.01,-0.00,-0.00,27.93,13.47,-26.82,
71995.2,-0.17,-0.32,0.91,0.01,0.00,-0.00,28.93,14.78,-27.15,
71995.3,-0.17,-0.32,0.91,0.01,0.02,-0.00,29.04,12.35,-28.42,
71995.4,-0.17,-0.32,0.91,0.00,0.01,-0.00,28.73,14.82,-27.50,
71995.5,-0.17,-0.32,0.91,0.00,0.00,-0.00,27.78,13.62,-28.59,
71995.6,-0.17,-0.32,0.91,-0.00,-0.00,0.00,28.43,14.78,-29.11,
71995.7,-0.17,-0.32,0.91,-0.00,-0.00,0.00,28.10,13.27,-28.95,
71995.8,-0.17,-0.32,0.91,0.00,-0.00,0.00,28.86,14.33,-29.14,
71995.9,-0.17,-0.32,0.91,0.00,-0.00,-0.00,29.10,13.60,-27.97,
71996.1,-0.00,-0.06,1.16,1.16,-0.97,0.38,25.14,7.64,-32.31,
71996.2,-0.05,-0.16,1.19,1.20,-0.95,0.36,23.59,7.38,-32.05,
71996.3,-0.04,-0.17,1.20,1.22,-0.91,0.34,18.91,-9.44,-37.94,
71996.4,0.03,-0.11,1.24,1.25,-0.80,0.30,23.59,6.24,-32.74,
71996.5,0.03,-0.10,1.23,1.26,-0.76,0.29,23.59,4.69,-33.69,
71996.6,0.02,-0.09,1.21,1.29,-0.68,0.25,15.07,-22.38,-32.54,
71996.7,0.01,-0.09,1.20,1.12,-0.99,0.39,23.51,3.85,-34.35,
71996.8,0.01,-0.09,1.19,1.14,-0.98,0.39,23.42,2.84,-35.16,
71996.9,-0.01,-0.08,1.17,-0.00,0.17,-0.05,15.88,-23.95,-32.48,
71997.1,0.08,0.52,0.73,-0.07,0.51,-0.24,16.74,-22.72,-32.22,
71997.2,0.06,0.55,0.74,0.03,0.53,-0.05,19.76,-23.67,-31.90,
71997.3,0.05,0.51,0.75,0.05,0.45,-0.00,17.59,-23.01,-31.57,
71997.4,0.12,0.64,0.80,-0.08,0.54,-0.23,16.85,-23.91,-32.32,
71997.5,0.14,0.62,0.82,0.15,0.28,0.02,29.60,13.10,-27.48,
71997.6,0.20,0.61,0.80,0.18,0.26,0.02,18.73,-23.56,-31.55,
71997.7,0.04,0.50,0.76,-0.10,0.54,-0.25,28.10,10.24,-29.31,
71997.8,0.26,0.64,0.71,-0.11,0.52,-0.26,28.24,10.38,-29.98,
71997.9,0.23,0.65,0.71,-0.10,0.51,-0.26,28.60,12.09,-27.48,
71998.1,-0.19,-0.30,0.92,-0.01,0.01,-0.02,27.93,12.09,-27.80,
71998.2,-0.19,-0.29,0.91,-0.00,0.02,-0.02,30.27,12.43,-28.46,
71998.3,-0.19,-0.29,0.92,-0.00,0.02,-0.02,30.02,12.56,-28.38,
71998.4,-0.19,-0.29,0.92,0.01,0.01,0.01,28.60,12.09,-27.48,
71998.5,-0.19,-0.30,0.90,-0.00,0.04,0.00,29.02,12.39,-27.89,
71998.6,-0.19,-0.30,0.92,-0.02,0.01,-0.04,30.67,13.18,-28.26,
71998.7,-0.19,-0.31,0.91,-0.02,0.01,-0.04,28.93,13.10,-27.80,
71998.8,-0.19,-0.31,0.91,-0.00,0.01,-0.02,28.63,11.72,-28.03,
71998.9,-0.19,-0.30,0.91,0.00,-0.00,-0.02,28.79,12.95,-27.80,
71999.1,-0.19,-0.29,0.92,-0.01,0.01,0.00,31.27,12.76,-26.50,
71999.2,-0.19,-0.29,0.90,-0.01,0.01,0.00,28.76,12.37,-28.39,
71999.3,-0.19,-0.29,0.92,-0.00,-0.01,0.01,29.12,12.53,-27.33,
71999.4,-0.20,-0.29,0.91,0.00,0.02,0.00,29.10,12.59,-28.29,
71999.5,-0.20,-0.30,0.91,-0.01,0.00,-0.00,28.96,11.78,-28.72,
71999.6,-0.20,-0.29,0.92,-0.01,-0.00,-0.00,29.93,12.09,-27.48,
71999.7,-0.20,-0.29,0.92,-0.01,-0.02,0.01,28.93,13.10,-28.46,
71999.8,-0.19,-0.29,0.92,-0.00,0.01,0.00,29.43,12.59,-28.29,
71999.9,-0.20,-0.29,0.92,-0.00,-0.02,0.01,29.43,12.59,-28.29,
72000.1,-0.19,-0.29,0.91,-0.01,-0.01,0.00,29.62,12.23,-27.95,
72000.2,-0.19,-0.29,0.91,-0.01,0.02,-0.00,28.60,12.09,-27.48,
72000.3,-0.20,-0.30,0.91,-0.00,0.01,-0.00,28.81,12.19,-27.37,
72000.4,-0.19,-0.30,0.91,-0.00,-0.02,-0.00,28.92,11.61,-27.07,
72000.5,-0.19,-0.29,0.92,-0.00,-0.00,-0.00,29.26,12.43,-27.15,
72000.7,-0.19,-0.29,0.91,-0.01,0.01,0.01,29.48,12.35,-27.49,
72000.9,-0.19,-0.30,0.91,-0.01,-0.01,0.00,29.77,12.26,-27.97,
72002.1,-0.19,-0.30,0.91,-0.01,-0.00,-0.00,29.95,12.13,-27.26,
72002.2,-0.19,-0.30,0.92,-0.01,-0.02,0.00,29.16,11.84,-28.23,
72002.3,-0.19,-0.30,0.91,-0.00,-0.00,0.00,29.58,12.22,-28.09,
72002.4,-0.19,-0.30,0.91,0.00,-0.00,-0.01,29.10,11.25,-27.97,
72002.5,-0.19,-0.29,0.91,-0.01,-0.00,-0.01,28.39,12.36,-27.21,
72002.6,-0.20,-0.34,0.96,-0.01,0.00,-0.00,28.96,11.53,-27.90,
72002.7,-0.19,-0.30,0.92,-0.01,0.01,-0.00,28.43,12.59,-27.64,
72002.8,-0.20,-0.30,0.91,-0.01,0.00,-0.00,29.43,13.94,-26.99,
72002.9,-0.22,-0.30,1.27,-0.01,-0.01,0.01,28.76,8.89,-29.27,
72003.1,-0.03,-0.09,1.16,1.36,-0.78,0.76,24.09,2.26,-34.83,
72003.2,-0.01,-0.07,1.17,1.36,-0.78,0.75,23.25,0.99,-35.65,
72003.3,0.02,-0.05,1.20,1.36,-0.75,0.74,18.43,-15.19,-35.79,
72003.4,0.06,-0.03,1.20,1.37,-0.68,0.75,22.76,-0.77,-35.40,
72003.5,-0.04,-0.09,1.15,1.40,-0.61,0.75,14.17,-20.70,-35.11,
72003.6,0.09,0.01,1.14,0.48,-0.11,-0.75,22.59,-1.36,-35.32,
72003.7,0.10,0.03,1.13,1.37,-0.77,0.77,16.91,-24.32,-32.75,
72003.8,0.08,0.09,1.05,1.45,-0.49,0.62,17.74,-25.08,-32.54,
72003.9,0.08,0.12,1.04,1.44,-0.54,0.54,16.91,-25.24,-30.42,
72004.1,0.11,0.65,0.71,0.14,0.29,-0.13,19.08,-25.75,-29.93,
72004.2,0.17,0.68,0.74,0.02,-0.09,0.04,19.09,-25.40,-30.57,
72004.3,0.21,0.66,0.61,-0.03,0.12,-0.01,17.41,-23.73,-29.93,
72004.4,0.14,0.63,0.72,0.10,0.37,-0.14,18.74,-24.74,-30.58,
72004.5,0.23,0.66,0.61,-0.09,-0.05,-0.02,18.74,-24.91,-31.73,
72004.6,0.18,0.69,0.64,0.09,0.41,-0.14,17.07,-24.07,-31.56,
72004.7,0.15,0.70,0.64,0.05,0.22,-0.10,18.08,-24.74,-30.26,
72004.8,0.09,0.63,0.72,0.16,0.26,-0.11,18.56,-25.23,-30.10,
72004.9,0.09,0.63,0.73,-0.34,0.73,0.43,16.95,-25.54,-31.12,
72005.1,0.12,0.69,0.65,-0.26,0.59,0.18,17.68,-24.01,-29.72,
72005.2,0.11,0.67,0.64,-0.32,0.57,0.14,19.58,-25.92,-30.09,
72005.3,0.12,0.60,0.64,-0.39,0.58,0.14,23.82,-16.46,-31.89,
72005.4,0.15,0.54,0.66,-0.49,0.63,0.19,19.63,-25.40,-29.77,
72005.5,0.18,0.49,0.67,-0.52,0.64,0.21,25.59,-3.05,-33.03,
72005.6,0.19,0.47,0.70,-0.55,0.66,0.21,19.75,-24.07,-28.95,
72005.7,0.19,0.50,0.72,-1.16,0.51,-0.38,19.33,-24.31,-30.64,
72005.8,0.15,0.64,0.66,-0.56,0.68,0.17,18.91,-24.57,-32.38,
72005.9,0.15,0.57,0.74,-0.04,-0.37,0.25,29.60,12.43,-27.15,
72006.1,-0.19,-0.27,0.97,-0.08,-0.04,0.04,29.60,11.42,-27.80,
72006.2,-0.22,-0.28,0.98,-0.09,-0.07,0.04,28.60,12.43,-28.46,
72006.3,-0.23,-0.28,0.96,-0.08,-0.04,0.08,29.61,11.92,-27.22,
72006.4,-0.24,-0.28,0.96,-0.09,-0.10,0.10,26.97,11.80,-28.13,
72006.5,-0.23,-0.29,0.94,-0.10,-0.22,0.14,29.93,11.75,-26.82,
72006.6,-0.22,-0.29,0.95,-0.10,-0.25,0.16,28.43,12.45,-28.63,
72006.7,-0.20,-0.29,0.93,-0.00,0.02,-0.05,29.26,11.75,-30.09,
72006.8,-0.19,-0.29,0.91,-0.12,-0.24,0.18,30.43,12.59,-29.27,
72006.9,-0.17,-0.29,0.90,-0.13,-0.23,0.18,29.50,12.19,-28.21,
72007.1,-0.18,-0.30,0.92,0.01,0.07,0.01,29.11,13.43,-28.31,
72007.2,-0.18,-0.30,0.93,0.01,0.05,-0.01,29.71,12.76,-28.35,
72007.3,-0.18,-0.30,0.92,-0.01,0.00,0.01,29.93,12.76,-28.13,
72007.4,-0.18,-0.30,0.91,0.01,0.06,0.01,29.26,12.76,-28.78,
72007.5,-0.18,-0.30,0.92,0.01,0.07,0.01,29.62,12.13,-28.74,
72007.6,-0.18,-0.30,0.92,0.02,0.06,0.01,28.61,12.19,-28.75,
72007.7,-0.18,-0.30,0.91,0.02,0.07,0.01,29.43,11.25,-28.95,
72007.8,-0.18,-0.30,0.92,0.01,0.08,0.02,29.58,12.16,-28.76,
72008.5,-0.19,-0.29,0.92,-0.01,0.00,0.00,28.80,12.36,-26.89,
72008.6,-0.19,-0.30,0.92,-0.01,0.01,-0.00,28.93,12.43,-28.46,
72008.7,-0.19,-0.27,0.89,0.01,0.09,-0.06,28.43,11.25,-27.97,
72008.8,-0.07,-0.27,0.92,0.00,0.00,0.01,29.42,13.16,-28.61,
72008.9,-0.17,-0.30,0.92,-0.00,0.01,0.00,28.96,12.35,-28.02,
72009.1,-0.17,-0.30,0.92,-0.00,0.02,-0.01,29.09,13.58,-28.29,
72009.2,-0.18,-0.30,0.92,-0.00,0.02,-0.00,28.37,11.99,-28.43,
72009.3,-0.18,-0.31,0.92,0.00,0.01,0.00,29.10,14.27,-27.31,
72009.4,-0.18,-0.30,0.92,0.00,0.01,0.00,28.23,11.79,-28.14,
72009.5,-0.18,-0.30,0.92,0.00,-0.00,0.00,28.10,11.92,-26.99,
72009.6,-0.18,-0.31,0.91,-0.00,-0.00,0.00,28.10,13.43,-28.21,
72009.7,-0.17,-0.30,0.92,0.00,-0.01,0.01,28.16,12.10,-27.35,
72009.8,-0.17,-0.30,0.92,0.00,-0.01,0.01,28.43,12.93,-28.95,
72009.9,-0.17,-0.31,0.92,0.00,0.00,0.01,28.43,12.26,-28.29,
72010.1,-0.18,-0.30,0.93,-0.00,-0.01,0.01,29.60,12.43,-27.80,
72010.2,-0.18,-0.30,0.93,-0.00,-0.00,0.00,28.93,13.43,-29.77,
72010.3,-0.18,-0.30,0.92,-0.10,0.07,0.13,29.02,13.17,-29.59,
72010.4,-0.04,-0.21,1.14,-0.00,0.01,0.00,30.43,13.60,-27.64,
72010.5,-0.30,-0.38,1.40,-0.00,0.01,-0.00,29.26,12.43,-29.11,
72010.6,-0.17,-0.23,1.31,0.00,0.00,-0.00,29.31,12.34,-29.06,
72010.7,-0.14,-0.07,1.13,-0.00,-0.01,-0.00,26.43,0.15,-33.53,
72010.8,-0.17,0.19,0.86,-0.00,-0.01,0.00,29.77,11.58,-28.62,
72010.9,-0.08,0.27,0.72,-0.00,-0.02,0.00,29.66,12.13,-28.09,
72011.1,0.10,0.36,0.66,0.84,-0.26,-0.37,18.42,-21.91,-33.78,
72011.2,0.10,0.36,0.64,0.41,-0.13,-0.53,18.37,-18.65,-34.79,
72011.3,0.09,0.43,0.68,1.03,-0.48,-0.15,18.08,-19.69,-34.51,
72011.4,0.10,0.44,0.66,1.02,-0.43,-0.15,17.68,-23.46,-32.13,
72011.5,0.13,0.43,0.64,0.97,-0.46,-0.25,18.32,-20.42,-33.57,
72011.6,0.16,0.43,0.61,0.97,-0.46,-0.28,18.41,-20.70,-33.20,
72011.7,0.18,0.44,0.58,0.95,-0.41,-0.29,18.91,-22.98,-32.68,
72011.8,0.07,0.61,0.75,0.91,-0.32,-0.31,18.30,-21.27,-33.53,
72011.9,0.10,0.63,0.69,0.88,-0.26,-0.34,20.41,-22.72,-32.22,
72012.1,0.13,0.65,0.67,-0.11,-0.10,-0.04,19.91,-23.23,-31.07,
72012.2,0.14,0.64,0.69,-0.01,-0.21,0.06,19.36,-23.12,-31.40,
72012.3,0.14,0.64,0.69,-0.14,-0.11,-0.03,18.79,-23.01,-30.51,
72012.4,0.14,0.64,0.73,-0.17,-0.10,-0.01,19.20,-22.60,-29.84,
72012.5,0.11,0.63,0.77,-0.18,-0.09,-0.02,17.13,-22.35,-32.81,
72012.6,0.10,0.64,0.80,-0.16,-0.12,-0.03,19.41,-22.64,-29.77,
72012.7,0.10,0.64,0.81,-0.15,-0.14,-0.04,19.91,-22.89,-29.77,
72012.8,0.10,0.65,0.66,-0.13,-0.19,-0.05,16.78,-22.44,-33.33,
72012.9,0.12,0.65,0.67,-0.10,-0.24,-0.06,18.88,-23.01,-30.88,
72013.1,0.06,0.48,0.74,-1.28,0.44,-0.22,20.75,-19.36,-32.87,
72013.2,0.05,0.46,0.78,-1.33,0.42,-0.22,25.20,-7.87,-33.77,
72013.3,0.16,0.20,0.98,-1.39,0.43,-0.24,24.76,0.82,-33.85,
72013.4,-0.13,-0.04,1.17,-0.93,0.31,-0.31,26.09,7.19,-32.53,
72013.5,0.16,0.19,0.89,-0.64,0.46,-0.10,26.91,9.75,-31.56,
72013.6,0.08,0.31,0.85,-1.31,0.62,-0.32,27.43,13.94,-30.26,
72013.7,0.01,0.41,0.88,-1.39,0.65,-0.50,20.75,-19.36,-32.87,
72013.8,-0.00,0.41,0.91,-1.41,0.58,-0.52,21.75,-15.99,-33.53,
72013.9,-0.00,0.35,1.00,-1.47,0.48,-0.54,27.93,13.43,-28.78,
72014.1,-0.16,-0.28,0.95,-0.05,0.03,-0.00,27.76,13.94,-28.95,
72014.2,-0.17,-0.29,0.94,-0.05,0.06,-0.01,28.10,13.27,-28.29,
72014.3,-0.18,-0.29,0.93,0.02,0.02,0.03,28.32,12.34,-28.74,
72014.4,-0.18,-0.29,0.91,-0.02,-0.10,0.03,27.76,12.93,-28.62,
72014.5,-0.19,-0.30,0.90,-0.02,-0.11,0.00,28.43,11.92,-28.95,
72014.6,-0.16,-0.28,0.96,-0.04,0.09,-0.01,27.43,11.58,-28.29,
72014.7,-0.18,-0.32,0.90,-0.04,-0.03,0.02,27.93,12.61,-28.94,
72014.8,-0.17,-0.33,0.90,-0.05,0.01,0.01,27.76,12.26,-27.97,
72014.9,-0.16,-0.33,0.91,-0.03,-0.09,0.04,28.14,12.58,-28.66,
72015.1,-0.18,-0.31,0.92,-0.02,-0.07,-0.01,29.10,12.93,-28.62,
72015.2,-0.18,-0.31,0.92,-0.00,-0.01,-0.05,29.23,14.11,-27.73,
72015.3,-0.17,-0.30,0.91,-0.01,0.03,0.01,28.26,11.75,-29.11,
72015.4,-0.18,-0.31,0.92,-0.01,0.02,0.02,29.26,14.44,-27.48,
72015.5,-0.16,-0.29,0.92,-0.02,-0.03,0.01,28.17,13.80,-29.61,
72015.6,-0.16,-0.30,0.92,-0.07,0.00,0.00,28.14,14.40,-28.57,
72015.7,-0.17,-0.30,0.91,0.03,-0.06,0.01,28.60,12.09,-28.78,
72015.8,-0.16,-0.31,0.92,-0.02,-0.05,-0.00,28.40,12.15,-29.03,
72015.9,-0.17,-0.30,0.92,-0.03,-0.07,-0.01,28.60,13.58,-29.47,
72016.1,-0.17,-0.31,0.92,0.01,0.09,0.04,26.55,13.83,-28.52,
72016.2,-0.16,-0.31,0.92,0.01,0.07,0.04,27.26,13.43,-28.46,
72016.3,-0.16,-0.31,0.92,0.01,0.05,0.04,28.34,12.59,-28.38,
72016.4,-0.17,-0.31,0.91,0.01,0.04,0.04,26.49,13.76,-28.56,
72016.5,-0.15,-0.30,0.93,0.01,0.04,0.04,28.43,12.93,-28.29,
72016.6,-0.17,-0.31,0.91,0.01,0.10,0.03,28.00,13.14,-29.26,
72016.7,-0.14,-0.29,0.93,0.01,0.10,0.03,27.95,12.05,-29.14,
72016.8,-0.14,-0.30,0.93,0.01,0.04,0.03,27.60,11.42,-29.77,
72016.9,-0.14,-0.29,0.93,0.01,0.04,0.03,28.07,13.48,-27.99,
72017.1,-0.16,-0.30,0.91,0.01,0.04,0.00,28.09,13.00,-28.88,
72017.2,-0.17,-0.30,0.91,0.01,0.03,0.01,29.19,13.10,-29.17,
72017.3,-0.17,-0.30,0.92,0.00,0.03,0.01,27.16,12.95,-28.78,
72017.4,-0.17,-0.30,0.92,0.02,0.04,0.00,27.93,12.76,-28.78,
72017.5,-0.17,-0.30,0.92,0.02,0.04,0.00,26.93,12.43,-30.09,
72017.6,-0.17,-0.29,0.92,0.02,0.04,0.01,27.70,12.53,-29.01,
72017.7,-0.18,-0.29,0.92,0.02,0.04,0.01,28.26,13.77,-27.80,
72017.8,-0.17,-0.29,0.92,0.01,0.04,0.01,28.26,12.09,-28.78,
72017.9,-0.17,-0.29,0.93,0.01,0.04,0.01,27.78,12.54,-29.11,
72018.1,-0.10,-0.22,1.35,1.82,-1.00,0.26,24.91,7.98,-32.75,
72018.2,-0.10,-0.21,1.33,1.20,-0.77,0.24,24.76,7.21,-33.20,
72018.3,-0.10,-0.19,1.29,1.33,-0.67,0.26,19.19,-12.67,-36.72,
72018.4,-0.08,-0.16,1.28,1.61,-0.70,0.34,25.23,7.45,-32.50,
72018.5,-0.07,-0.15,1.28,0.85,-0.49,-0.55,15.57,-21.88,-32.05,
72018.6,-0.06,-0.14,1.27,0.61,0.21,-0.55,16.08,-24.41,-33.15,
72018.7,-0.10,-0.23,1.35,1.66,-0.79,0.33,25.35,7.26,-32.26,
72018.8,-0.02,-0.07,1.25,1.70,-0.86,0.32,24.59,4.35,-32.71,
72018.9,-0.02,-0.04,1.25,1.80,-0.99,0.26,17.91,-23.48,-31.88,
72019.1,0.19,0.61,0.70,-0.29,-0.12,-0.25,18.08,-22.72,-32.54,
72019.2,0.08,0.55,0.81,0.03,0.09,-0.13,17.07,-22.38,-32.22,
72019.3,0.03,0.53,0.87,-0.27,-0.12,-0.26,18.24,-22.55,-32.71,
72019.4,0.01,0.52,0.91,-0.25,-0.12,-0.29,16.74,-21.71,-32.87,
72019.5,-0.00,0.51,0.89,-0.02,0.02,-0.07,17.02,-21.99,-32.96,
72019.6,0.06,0.56,0.88,0.01,0.06,-0.02,19.75,-23.06,-30.58,
72019.7,0.11,0.63,0.84,0.06,0.09,0.05,17.24,-22.22,-33.03,
72019.8,0.13,0.65,0.78,0.19,0.08,0.08,17.98,-22.67,-32.60,
72019.9,0.19,0.60,0.73,-0.15,0.12,0.02,18.19,-22.00,-31.93,
72020.1,0.10,0.58,0.71,0.06,-0.02,0.04,16.65,-22.47,-32.70,
72020.2,0.10,0.58,0.70,0.09,-0.03,0.03,18.57,-22.18,-32.35,
72020.3,0.11,0.60,0.70,0.13,-0.03,0.07,15.47,-23.54,-32.08,
72020.4,0.13,0.62,0.69,0.14,-0.04,0.10,17.81,-21.91,-31.89,
72020.5,0.15,0.62,0.70,0.14,-0.02,0.12,17.41,-22.05,-31.89,
72020.6,0.13,0.61,0.68,0.13,-0.00,0.13,18.08,-19.69,-32.22,
72020.7,0.12,0.63,0.70,0.11,0.01,0.13,22.50,-14.23,-31.87,
72020.8,0.13,0.57,0.72,0.08,-0.01,0.13,16.53,-22.34,-32.46,
72020.9,0.11,0.58,0.72,0.07,-0.04,0.13,27.30,2.22,-31.72,
72021.1,-0.22,-0.23,1.01,-0.30,0.29,-0.04,27.93,9.40,-30.74,
72021.2,-0.18,-0.22,1.03,-0.35,0.11,-0.04,28.32,11.09,-28.19,
72021.3,-0.20,-0.32,0.97,-0.85,0.19,-0.26,27.59,9.05,-30.19,
72021.4,-0.18,-0.15,1.32,-0.60,0.48,-0.10,29.43,11.58,-27.31,
72021.5,-0.18,-0.22,1.28,-0.56,0.44,-0.11,27.03,8.99,-30.19,
72021.6,-0.15,-0.14,1.13,-0.52,0.40,-0.14,27.43,8.94,-29.87,
72021.7,-0.19,-0.18,1.09,-0.45,0.34,-0.16,28.60,13.43,-27.15,
72021.8,-0.20,-0.20,1.08,-0.42,0.34,-0.15,29.04,12.42,-26.16,
72021.9,-0.22,-0.23,1.04,-0.35,0.32,-0.10,27.81,10.29,-28.10,
72022.1,-0.21,-0.29,0.91,-0.00,0.06,-0.00,29.61,12.37,-27.16,
72022.2,-0.22,-0.29,0.90,-0.00,0.06,-0.00,29.60,12.43,-27.15,
72022.3,-0.21,-0.29,0.91,0.01,0.05,-0.00,28.60,13.10,-26.17,
72022.4,-0.21,-0.29,0.91,0.00,0.05,-0.01,28.26,12.43,-25.84,
72022.5,-0.23,-0.30,0.91,0.00,0.03,-0.01,29.94,13.16,-27.42,
72022.6,-0.21,-0.29,0.92,-0.01,-0.04,-0.00,29.60,12.43,-27.48,
72022.7,-0.21,-0.28,0.92,-0.01,0.05,0.00,29.77,12.26,-27.31,
72022.8,-0.21,-0.29,0.91,-0.00,0.06,0.00,29.41,13.67,-26.67,
72022.9,-0.21,-0.29,0.91,-0.01,-0.00,-0.02,30.43,11.92,-27.31,
72023.1,-0.21,-0.30,0.91,-0.00,-0.01,0.00,27.60,12.43,-27.15,
72023.2,-0.22,-0.31,0.92,-0.00,-0.00,0.00,30.43,12.59,-26.99,
72023.3,-0.21,-0.30,0.92,-0.00,-0.00,0.00,29.91,12.37,-26.62,
72023.4,-0.21,-0.30,0.91,-0.00,0.00,0.00,29.26,13.43,-25.84,
72023.5,-0.21,-0.29,0.91,-0.00,0.00,0.01,29.60,12.09,-26.50,
72023.6,-0.21,-0.29,0.91,-0.00,-0.01,-0.01,28.79,13.76,-26.53,
72023.7,-0.21,-0.29,0.92,-0.00,-0.01,-0.01,30.43,12.59,-26.33,
72023.8,-0.21,-0.30,0.91,-0.00,-0.01,-0.01,27.60,12.43,-27.15,
72023.9,-0.21,-0.29,0.91,-0.00,-0.01,-0.00,29.43,12.36,-25.63,
72024.1,-0.23,-0.30,0.90,0.00,0.00,-0.00,28.14,13.26,-26.77,
72024.2,-0.22,-0.30,0.91,-0.01,-0.03,0.01,29.93,13.77,-26.82,
72024.3,-0.21,-0.30,0.91,-0.01,-0.04,0.01,30.27,13.43,-26.50,
72024.4,-0.22,-0.30,0.91,-0.01,0.01,-0.00,30.24,13.44,-26.50,
72024.5,-0.21,-0.30,0.91,-0.01,-0.04,0.01,30.54,13.87,-27.31,
72024.6,-0.21,-0.30,0.91,-0.01,-0.04,0.01,29.10,13.60,-26.66,
72024.7,-0.23,-0.30,0.91,-0.01,-0.03,0.01,29.10,13.60,-26.66,
72024.8,-0.21,-0.30,0.91,0.00,0.02,-0.00,28.76,12.93,-25.68,
72024.9,-0.21,-0.30,0.90,0.00,0.01,-0.00,28.10,13.94,-26.99,
72025.1,-0.22,-0.30,0.90,0.01,0.03,0.00,28.93,13.10,-26.50,
72025.2,-0.22,-0.30,0.90,0.01,-0.00,0.00,28.76,13.60,-26.00,
72025.3,-0.22,-0.30,0.90,0.01,-0.02,0.00,29.55,13.87,-27.10,
72025.4,-0.22,-0.30,0.90,0.00,-0.00,0.00,30.35,13.89,-26.65,
72025.5,-0.23,-0.30,0.90,0.01,-0.02,-0.00,29.10,13.60,-24.70,
72025.6,-0.21,-0.30,0.90,0.01,-0.01,-0.00,29.55,14.23,-27.10,
72025.7,-0.22,-0.30,0.90,0.00,0.00,-0.00,28.93,13.77,-26.50,
72025.8,-0.22,-0.30,0.92,0.00,0.01,-0.00,30.10,13.94,-26.00,
72025.9,-0.21,-0.30,0.91,0.02,0.14,-0.02,29.56,12.63,-26.37,
72026.1,-0.20,-0.29,1.01,0.11,-0.60,0.05,29.93,14.11,-25.51,
72026.2,-0.16,-0.28,1.00,-0.04,-0.19,0.09,29.41,13.58,-26.03,
72026.3,-0.19,-0.28,1.02,-0.04,-0.19,0.10,26.93,9.06,-32.71,
72026.4,-0.15,-0.21,1.05,-0.03,-0.18,0.11,28.60,12.76,-26.82,
72026.5,-0.16,-0.21,1.06,-0.03,-0.15,0.12,18.04,-2.97,-37.14,
72026.6,-0.18,-0.19,1.07,-0.07,-0.31,0.05,17.07,-12.97,-37.77,
72026.7,-0.13,-0.20,1.09,-0.07,-0.38,0.05,29.26,14.44,-26.50,
72026.8,-0.10,-0.22,1.20,-0.01,-0.54,0.06,14.62,-22.25,-34.21,
72026.9,-0.08,-0.25,1.25,0.17,0.39,-0.02,15.07,-26.08,-31.89,
72027.1,0.26,0.57,0.54,-0.31,0.02,-0.24,17.58,-24.91,-30.96,
72027.2,0.26,0.57,0.55,-0.10,-0.08,-0.09,17.56,-23.22,-31.89,
72027.3,0.29,0.63,0.57,-0.08,-0.08,-0.08,17.10,-21.35,-34.21,
72027.4,0.28,0.62,0.58,-0.09,-0.09,-0.08,17.54,-25.24,-30.78,
72027.5,0.28,0.61,0.59,-0.23,0.00,-0.13,16.57,-25.24,-31.73,
72027.6,0.28,0.59,0.61,-0.25,0.03,-0.16,19.82,-23.14,-31.37,
72027.7,0.27,0.59,0.61,-0.27,0.06,-0.19,17.36,-25.03,-31.79,
72027.8,0.25,0.61,0.63,-0.29,0.06,-0.21,18.41,-24.74,-31.89,
72027.9,0.22,0.62,0.65,-0.30,0.03,-0.23,19.02,-24.68,-31.71,
72028.1,0.11,0.65,0.76,-0.11,-0.08,-0.11,20.41,-22.72,-31.56,
72028.2,0.11,0.65,0.75,-0.10,-0.00,-0.11,20.58,-22.22,-31.07,
72028.3,0.12,0.66,0.73,0.07,-0.07,0.36,18.58,-21.21,-32.71,
72028.4,0.13,0.66,0.74,-0.11,-0.13,-0.10,18.24,-22.55,-31.07,
72028.5,0.08,0.67,0.71,-0.11,-0.10,-0.11,18.69,-23.01,-31.22,
72028.6,0.07,0.67,0.68,-0.09,0.08,-0.11,19.58,-23.23,-31.73,
72028.7,0.09,0.66,0.67,-0.13,0.01,-0.07,19.75,-24.07,-31.56,
72028.8,0.09,0.66,0.65,-0.16,-0.06,-0.05,20.75,-23.50,-31.89,
72028.9,0.10,0.65,0.65,-0.20,-0.13,-0.04,24.76,-6.58,-34.18,
72029.1,-0.13,-0.10,1.17,-1.38,0.22,-0.47,27.81,1.22,-31.93,
72029.2,-0.13,-0.09,1.18,-1.61,0.34,-0.45,28.10,2.84,-30.91,
72029.3,-0.14,-0.06,1.18,-1.57,0.30,-0.38,27.43,13.93,-28.23,
72029.4,-0.14,-0.09,1.18,-1.52,0.27,-0.38,26.54,3.15,-31.01,
72029.5,-0.11,-0.01,1.17,0.03,0.27,0.02,25.59,3.34,-31.07,
72029.6,-0.13,-0.09,1.17,-1.51,0.25,-0.39,28.93,15.45,-26.82,
72029.7,-0.11,-0.06,1.15,-1.50,0.23,-0.40,28.60,15.45,-26.50,
72029.8,-0.13,-0.10,1.13,-1.42,0.24,-0.48,26.93,6.37,-31.40,
72029.9,-0.15,-0.13,1.10,-1.39,0.24,-0.49,28.15,13.58,-27.52,
72030.1,-0.21,-0.30,0.92,-0.03,-0.01,0.04,28.26,13.77,-27.48,
72030.2,-0.20,-0.30,0.92,-0.01,0.16,0.02,29.85,13.18,-25.60,
72030.3,-0.21,-0.30,0.93,-0.03,0.01,0.04,30.26,13.48,-27.19,
72030.4,-0.21,-0.30,0.91,-0.03,0.03,0.04,28.76,14.08,-26.85,
72030.5,-0.22,-0.30,0.91,-0.03,0.05,0.04,30.53,13.66,-27.00,
72030.6,-0.23,-0.30,0.90,-0.02,0.07,0.03,29.77,13.27,-25.68,
72030.7,-0.24,-0.30,0.90,-0.00,0.24,0.00,30.27,14.44,-26.50,
72030.8,-0.25,-0.31,0.90,0.01,0.19,-0.02,30.23,14.40,-26.21,
72030.9,-0.25,-0.30,0.89,0.01,0.15,-0.01,29.93,14.78,-25.84,
72031.1,-0.22,-0.30,0.91,0.00,-0.00,-0.01,29.93,13.84,-25.45,
72031.2,-0.22,-0.30,0.90,0.00,0.00,-0.01,29.93,14.11,-26.50,
72031.3,-0.23,-0.30,0.90,-0.00,0.01,-0.01,28.92,14.09,-26.50,
72031.4,-0.23,-0.30,0.90,-0.00,0.01,-0.01,30.00,13.64,-26.69,
72031.5,-0.24,-0.29,0.91,-0.00,0.00,-0.00,30.10,12.93,-26.99,
72031.6,-0.22,-0.30,0.90,-0.01,-0.01,0.01,30.43,12.59,-25.02,
72031.7,-0.22,-0.30,0.90,0.00,-0.02,-0.01,30.96,13.79,-26.86,
72031.8,-0.24,-0.30,0.90,0.00,-0.01,-0.01,31.27,14.11,-26.82,
72031.9,-0.24,-0.30,0.91,0.00,-0.01,-0.01,30.31,13.96,-25.18,
72032.1,-0.22,-0.31,0.91,-0.01,0.02,-0.00,29.93,13.43,-26.50,
72032.2,-0.23,-0.31,0.90,-0.01,0.02,0.00,28.26,14.11,-25.84,
72032.3,-0.23,-0.30,0.91,-0.01,0.03,0.00,28.30,14.07,-26.28,
72032.4,-0.22,-0.30,0.91,-0.01,0.03,0.00,29.60,14.11,-25.84,
72032.5,-0.23,-0.31,0.90,0.01,0.01,-0.01,28.43,13.94,-27.64,
72032.6,-0.22,-0.30,0.91,-0.01,0.03,-0.00,28.30,13.81,-27.13,
72032.7,-0.22,-0.30,0.90,-0.00,0.03,0.00,30.22,13.49,-27.43,
72032.8,-0.22,-0.31,0.91,-0.01,0.01,0.00,28.10,13.60,-26.33,
72032.9,-0.22,-0.30,0.90,-0.00,0.01,-0.00,29.34,13.49,-26.44,
72033.1,-0.23,-0.31,0.90,-0.00,0.02,-0.00,29.26,15.10,-26.50,
72033.2,-0.23,-0.30,0.90,-0.00,0.02,-0.00,30.10,13.60,-27.64,
72033.3,-0.22,-0.31,0.91,-0.00,-0.01,-0.00,29.25,14.45,-26.04,
72033.4,-0.22,-0.30,0.91,-0.01,-0.00,-0.00,28.81,14.14,-26.96,
72033.5,-0.22,-0.30,0.91,-0.00,-0.01,-0.00,29.26,14.11,-25.51,
72033.6,-0.22,-0.31,0.91,0.00,-0.01,0.00,28.43,14.27,-26.33,
72033.7,-0.22,-0.30,0.91,-0.00,-0.00,0.00,28.84,14.27,-26.20,
72033.8,-0.23,-0.30,0.91,-0.00,0.01,0.00,29.26,13.10,-26.17,
72033.9,-0.22,-0.30,0.90,-0.00,0.01,0.00,30.43,14.27,-25.68,
72034.1,-0.24,-0.31,0.92,0.01,0.01,0.00,28.60,13.77,-25.51,
72034.2,-0.22,-0.31,0.90,0.01,0.01,0.00,29.93,14.44,-27.15,
72034.3,-0.22,-0.31,0.91,0.01,-0.01,0.01,30.27,15.45,-26.17,
72034.4,-0.23,-0.31,0.91,0.01,-0.01,0.01,29.43,10.57,-27.31,
72034.5,-0.23,-0.31,0.91,0.01,-0.01,0.01,26.75,4.89,-31.37,
72034.6,-0.22,-0.31,0.90,1.88,-1.07,0.18,23.75,-0.52,-33.53,
72034.7,-0.22,-0.31,0.91,1.75,-0.46,0.07,29.93,15.26,-26.26,
72034.8,-0.23,-0.31,0.91,0.01,-0.01,0.01,27.93,14.11,-26.82,
72034.9,-0.22,-0.31,0.91,0.01,0.01,0.00,28.17,13.98,-26.34,
72035.1,0.20,0.55,0.52,0.50,0.12,-0.38,16.38,-22.08,-31.57,
72035.2,0.17,0.54,0.52,0.48,0.10,-0.38,15.84,-22.90,-31.84,
72035.3,0.17,0.53,0.52,0.47,0.08,-0.38,17.07,-22.72,-30.91,
72035.4,0.15,0.51,0.52,0.42,-0.06,-0.39,17.34,-23.33,-32.17,
72035.5,0.16,0.52,0.51,0.39,-0.07,-0.39,15.74,-22.72,-32.87,
72035.6,0.22,0.55,0.53,0.38,-0.08,-0.39,18.77,-23.54,-31.50,
72035.7,0.17,0.54,0.51,0.08,0.21,0.02,18.50,-24.01,-31.68,
72035.8,-0.00,0.68,0.61,-0.01,0.43,-0.00,19.25,-22.89,-30.09,
72035.9,0.21,0.55,0.53,0.54,0.12,-0.36,15.91,-23.25,-32.63,
72036.1,0.16,0.66,0.77,-0.16,-0.16,-0.07,17.07,-22.72,-30.58,
72036.2,0.14,0.63,0.75,-0.22,-0.11,-0.03,17.10,-22.52,-31.81,
72036.3,0.17,0.61,0.74,-0.24,-0.13,-0.00,16.92,-23.03,-32.31,
72036.4,0.18,0.59,0.75,-0.25,-0.15,0.01,16.91,-22.22,-34.01,
72036.5,0.19,0.58,0.75,-0.23,-0.19,0.00,16.58,-22.05,-33.06,
72036.6,0.19,0.55,0.70,-0.20,-0.19,-0.01,20.75,-11.96,-34.51,
72036.7,0.16,0.52,0.73,-1.95,0.47,-0.53,16.24,-21.88,-32.05,
72036.8,0.15,0.66,0.76,-1.74,0.84,-0.37,24.42,4.86,-32.87,
72036.9,0.08,0.46,0.67,-0.17,-0.13,-0.07,26.97,7.81,-29.93,
72037.1,-0.33,-0.39,1.21,-0.81,0.46,0.18,28.59,12.20,-29.32,
72037.2,-0.14,-0.29,0.76,-0.86,0.01,0.05,28.43,12.26,-28.95,
72037.3,-0.23,-0.23,1.01,-0.86,0.01,0.02,28.93,13.10,-25.84,
72037.4,-0.22,-0.22,0.99,-0.85,0.10,-0.04,27.39,12.68,-27.52,
72037.5,-0.16,-0.15,1.27,-0.79,0.30,-0.12,26.76,12.93,-26.66,
72037.6,-0.27,-0.19,1.31,-0.66,0.42,-0.15,29.97,14.32,-27.36,
72037.7,-0.38,-0.35,1.42,-0.40,0.30,-0.05,28.14,13.11,-26.50,
72037.8,-0.38,-0.38,1.39,-0.31,0.20,0.01,28.43,12.26,-26.99,
72037.9,-0.33,-0.41,1.29,0.01,-0.00,0.01,28.93,12.43,-26.82,
72038.1,-0.20,-0.29,0.91,0.00,0.09,-0.00,29.26,14.11,-27.15,
72038.2,-0.20,-0.29,0.91,-0.00,0.04,0.03,29.77,13.60,-26.66,
72038.3,-0.20,-0.30,0.92,-0.00,0.04,0.03,28.70,13.49,-27.26,
72038.4,-0.20,-0.30,0.91,-0.00,0.05,0.04,28.76,13.60,-26.99,
72038.5,-0.18,-0.30,0.91,-0.00,0.04,0.03,27.91,13.43,-27.79,
72038.6,-0.18,-0.30,0.92,-0.00,0.06,0.02,28.91,13.81,-26.95,
72038.7,-0.18,-0.30,0.91,0.00,0.07,0.01,29.20,14.08,-26.43,
72038.8,-0.19,-0.30,0.91,0.00,0.09,0.00,29.59,13.48,-26.89,
72038.9,-0.20,-0.30,0.91,-0.00,0.02,0.00,29.45,14.48,-26.97,
72039.1,-0.21,-0.30,0.91,-0.00,0.01,-0.00,29.43,13.27,-27.31,
72039.3,-0.21,-0.30,0.91,0.00,0.01,-0.00,27.60,14.44,-25.51,
72039.5,-0.21,-0.30,0.90,0.00,0.01,-0.00,28.90,14.31,-26.02,
72039.6,-0.21,-0.30,0.91,0.00,0.01,-0.00,30.94,14.11,-26.82,
72039.7,-0.21,-0.30,0.91,0.00,0.02,-0.00,29.43,13.27,-27.31,
72040.6,-0.21,-0.30,0.90,-0.00,0.03,-0.00,30.10,13.60,-26.00,
72040.7,-0.25,-0.29,0.93,-0.08,-0.11,0.14,28.76,14.61,-25.68,
72040.8,-0.22,-0.27,0.88,0.01,0.01,0.01,29.43,14.95,-26.00,
72040.9,-0.21,-0.32,0.90,-0.01,-0.02,0.01,29.54,14.11,-25.74,
72041.1,-0.22,-0.31,0.90,-0.00,0.01,-0.00,28.76,13.94,-27.31,
72041.2,-0.22,-0.30,0.90,0.00,0.02,0.00,28.26,12.76,-25.84,
72041.3,-0.22,-0.31,0.91,-0.00,0.03,0.00,29.78,13.99,-26.94,
72041.4,-0.22,-0.31,0.91,0.00,0.03,-0.00,29.61,13.65,-27.31,
72041.5,-0.22,-0.30,0.90,-0.00,0.01,-0.00,29.93,15.71,-25.35,
72041.6,-0.22,-0.30,0.91,-0.00,0.01,-0.00,30.27,13.87,-27.38,
72041.7,-0.22,-0.31,0.90,-0.00,0.01,-0.00,28.43,14.27,-26.33,
72041.8,-0.22,-0.31,0.91,-0.00,0.01,-0.00,30.27,15.12,-26.17,
72041.9,-0.22,-0.31,0.90,0.00,-0.00,0.01,30.13,14.27,-26.17,
72042.1,-0.22,-0.31,0.90,0.01,0.00,-0.00,29.55,13.94,-25.69,
72042.2,-0.23,-0.30,0.91,0.01,0.01,-0.00,30.32,13.10,-26.02,
72042.3,-0.22,-0.30,0.90,-0.00,0.01,-0.00,29.60,13.10,-26.17,
72042.4,-0.22,-0.30,0.91,0.00,0.01,0.00,29.43,13.94,-25.35,
72042.5,-0.23,-0.30,0.91,0.00,0.01,-0.00,29.77,13.94,-26.33,
72042.6,-0.22,-0.30,0.90,0.00,0.01,0.00,29.26,14.11,-25.84,
72042.7,-0.23,-0.31,0.90,0.00,0.01,-0.00,29.28,13.80,-25.81,
72042.8,-0.23,-0.30,0.90,0.00,0.01,-0.00,29.15,13.76,-25.51,
72042.9,-0.23,-0.31,0.90,-0.00,0.01,0.00,30.27,13.43,-26.17,
72043.1,-0.23,-0.30,0.90,-0.00,-0.00,-0.00,30.43,13.27,-26.00,
72043.2,-0.22,-0.30,0.90,-0.00,-0.00,0.00,30.60,14.44,-26.50,
72043.3,-0.22,-0.31,0.91,-0.00,0.00,0.00,29.65,15.22,-25.81,
72043.4,-0.22,-0.30,0.90,-0.00,0.00,-0.00,30.15,13.99,-26.35,
72043.5,-0.23,-0.31,0.90,-0.00,-0.00,-0.00,30.61,14.27,-26.43,
72043.6,-0.23,-0.31,0.91,-0.00,-0.00,-0.01,29.53,13.53,-26.08,
72043.7,-0.22,-0.30,0.91,-0.01,-0.00,-0.01,30.18,14.44,-26.29,
72043.8,-0.23,-0.31,0.90,-0.00,-0.00,-0.00,29.56,13.37,-26.33,
72043.9,-0.23,-0.30,0.90,-0.00,-0.00,-0.00,29.15,14.32,-25.20,
72044.1,-0.13,-0.27,1.08,-0.02,-0.21,0.10,29.44,13.85,-26.65,
72044.2,-0.14,-0.28,1.12,0.02,-0.17,0.14,28.10,11.79,-29.60,
72044.3,-0.07,-0.20,1.25,1.96,-1.16,-0.07,24.11,6.07,-33.51,
72044.4,-0.16,-0.28,1.16,2.13,-0.81,0.05,28.43,13.94,-27.31,
72044.5,-0.14,-0.27,1.19,0.08,-0.17,0.18,17.15,-7.86,-36.89,
72044.6,-0.15,-0.28,1.25,0.24,-0.22,0.08,28.43,13.27,-28.62,
72044.7,-0.13,-0.25,1.13,0.31,-0.28,0.00,16.74,-21.71,-32.54,
72044.8,-0.19,-0.30,1.29,-0.04,-0.32,0.09,28.60,13.77,-26.50,
72044.9,-0.19,-0.28,1.32,-0.03,-0.26,0.09,29.77,14.61,-26.33,
72045.1,0.25,0.60,0.59,-0.09,-0.11,-0.11,18.91,-23.56,-33.03,
72045.2,0.22,0.62,0.62,-0.19,-0.11,-0.24,18.91,-23.56,-33.03,
72045.3,0.22,0.62,0.62,0.14,0.26,-0.04,17.45,-24.02,-31.84,
72045.4,0.19,0.60,0.66,0.08,0.04,-0.04,18.74,-23.39,-28.95,
72045.5,0.20,0.60,0.67,-0.21,-0.11,-0.27,17.58,-23.90,-31.73,
72045.6,0.21,0.60,0.69,-0.23,-0.01,-0.29,16.78,-23.10,-32.28,
72045.7,0.20,0.59,0.68,-0.22,0.01,-0.32,18.91,-21.21,-32.38,
72045.8,0.19,0.58,0.69,-0.21,0.04,-0.34,17.75,-21.46,-33.93,
72045.9,0.25,0.60,0.60,-0.21,0.09,-0.32,16.61,-22.76,-32.42,
72046.1,0.17,0.42,0.48,-0.25,0.75,0.58,15.91,-22.22,-33.36,
72046.2,0.14,0.42,0.50,-0.27,0.79,0.58,16.05,-22.93,-32.95,
72046.3,0.06,0.34,0.85,-0.28,0.82,0.57,19.69,-14.04,-35.79,
72046.4,0.14,0.43,0.50,-0.29,0.88,0.57,20.35,-4.65,-35.22,
72046.5,0.17,0.41,0.53,-0.31,0.93,0.56,16.12,-23.07,-32.87,
72046.6,0.17,0.40,0.52,-0.33,0.94,0.56,24.09,7.88,-33.53,
72046.7,0.17,0.40,0.50,-0.37,0.94,0.54,25.26,11.42,-30.42,
72046.8,0.11,0.46,0.44,-0.54,0.51,-0.01,17.83,-23.02,-32.63,
72046.9,0.07,0.52,0.45,0.06,-0.07,0.12,17.58,-21.21,-32.38,
72047.1,-0.14,-0.30,0.88,-0.10,-0.02,0.02,27.71,14.40,-27.92,
72047.2,-0.12,-0.29,0.83,-0.10,-0.02,0.01,28.10,14.27,-28.29,
72047.3,-0.13,-0.29,0.85,0.02,0.06,-0.06,27.54,14.60,-28.25,
72047.4,-0.18,-0.32,0.97,0.01,0.09,-0.10,28.10,14.27,-28.29,
72047.5,-0.20,-0.33,0.97,-0.08,-0.01,0.06,27.43,14.95,-29.27,
72047.6,-0.13,-0.29,0.87,-0.09,-0.01,0.04,25.85,13.96,-29.27,
72047.7,-0.18,-0.32,0.96,-0.04,-0.04,0.06,27.05,14.76,-29.09,
72047.8,-0.17,-0.29,0.95,-0.01,-0.16,0.09,26.76,14.61,-28.95,
72047.9,-0.16,-0.28,0.93,-0.01,-0.22,0.10,27.26,13.10,-29.11,
72048.1,-0.13,-0.31,0.93,-0.01,0.01,0.01,27.40,14.51,-28.54,
72048.2,-0.13,-0.32,0.92,-0.01,0.01,0.01,27.30,15.53,-29.62,
72048.3,-0.13,-0.31,0.93,-0.00,0.01,0.01,27.48,14.43,-29.14,
72048.4,-0.13,-0.31,0.92,-0.01,0.00,0.01,27.26,13.77,-31.07,
72048.5,-0.13,-0.31,0.92,0.01,0.00,-0.00,27.00,14.54,-28.02,
72048.6,-0.16,-0.32,0.92,0.01,-0.04,-0.02,27.12,14.18,-29.88,
72048.7,-0.13,-0.31,0.92,-0.00,-0.06,-0.02,27.09,14.27,-29.60,
72048.8,-0.13,-0.31,0.93,-0.00,0.05,-0.00,27.23,14.69,-27.86,
72048.9,-0.15,-0.31,0.91,-0.00,0.06,-0.01,27.60,14.78,-28.13,
72049.1,-0.15,-0.30,0.91,-0.01,0.08,-0.01,26.73,13.66,-28.74,
72049.2,-0.16,-0.29,0.91,-0.01,0.06,-0.01,26.43,13.60,-29.27,
72049.3,-0.16,-0.30,0.91,0.02,0.04,-0.01,26.93,13.97,-29.05,
72049.4,-0.14,-0.29,0.91,-0.01,0.01,0.00,27.03,14.05,-29.31,
72049.5,-0.15,-0.30,0.91,0.01,-0.00,0.02,26.09,15.62,-28.29,
72049.6,-0.16,-0.31,0.92,-0.00,0.09,-0.02,27.26,14.11,-28.78,
72049.7,-0.16,-0.31,0.93,-0.03,0.01,0.02,26.68,15.42,-28.23,
72049.8,-0.16,-0.32,0.93,-0.03,0.01,0.02,27.60,15.12,-28.13,
72049.9,-0.15,-0.33,0.92,-0.00,0.01,0.02,27.43,13.60,-27.97,
72050.1,-0.14,-0.32,0.92,0.01,0.09,-0.02,27.94,13.20,-28.35,
72050.2,-0.15,-0.31,0.91,0.01,0.06,-0.01,27.39,13.00,-27.49,
72050.3,-0.13,-0.31,0.92,0.01,0.08,-0.01,28.38,13.39,-28.24,
72050.4,-0.16,-0.31,0.91,0.01,0.08,-0.02,28.16,15.39,-28.03,
72050.5,-0.16,-0.30,0.92,0.01,0.03,-0.02,28.40,14.73,-27.97,
72050.6,-0.17,-0.30,0.91,0.00,0.02,-0.01,28.76,13.27,-27.97,
72050.7,-0.17,-0.31,0.92,-0.02,0.00,-0.01,26.26,14.11,-28.13,
72050.8,-0.17,-0.31,0.92,0.03,0.03,-0.00,27.97,13.53,-27.97,
72050.9,-0.17,-0.31,0.92,0.01,0.04,0.00,27.26,13.77,-27.48,
72051.1,-0.18,-0.32,0.91,-0.02,0.00,0.06,28.01,14.19,-28.38,
72051.2,-0.17,-0.32,0.92,-0.02,-0.01,0.06,28.10,14.27,-27.97,
72051.3,-0.19,-0.31,0.91,0.01,0.05,-0.03,26.76,12.93,-28.29,
72051.4,-0.16,-0.33,0.93,-0.02,-0.03,0.06,28.22,13.62,-27.84,
72051.5,-0.18,-0.32,0.91,-0.02,-0.01,0.05,27.76,15.28,-26.99,
72051.6,-0.14,-0.32,0.92,-0.01,-0.01,0.05,28.26,13.43,-27.80,
72051.7,-0.14,-0.33,0.92,-0.01,0.00,0.04,28.43,13.27,-28.92,
72051.8,-0.14,-0.33,0.92,0.00,0.01,0.03,27.60,13.77,-28.78,
72051.9,-0.14,-0.33,0.92,-0.01,-0.04,-0.01,28.43,13.27,-28.95,
72052.1,-0.13,-0.30,0.92,0.00,0.03,-0.01,27.72,15.12,-28.80,
72052.2,-0.15,-0.32,0.92,-0.00,0.04,-0.02,27.20,14.95,-28.18,
72052.3,-0.15,-0.30,0.91,-0.01,0.04,-0.02,28.64,15.70,-28.31,
72052.4,-0.12,-0.31,0.92,-0.01,0.03,-0.01,27.43,14.27,-28.29,
72052.5,-0.12,-0.30,0.92,-0.01,0.03,-0.00,29.03,15.77,-28.04,
72052.6,-0.12,-0.30,0.92,-0.01,0.02,0.00,26.47,14.88,-27.38,
72052.7,-0.13,-0.30,0.92,-0.01,0.01,0.01,28.43,14.27,-28.62,
72052.8,-0.16,-0.29,0.92,0.01,0.02,-0.01,27.74,13.96,-28.68,
72052.9,0.01,-0.13,1.23,0.01,0.03,-0.01,22.42,3.51,-35.81,
72053.1,0.04,0.19,0.95,1.64,-0.55,-0.17,17.58,-14.82,-35.65,
72053.2,0.10,0.34,0.50,1.19,0.16,-0.48,15.41,-20.70,-33.20,
72053.3,0.03,0.19,0.95,0.67,-0.22,-0.41,18.24,-21.21,-33.03,
72053.4,0.18,0.50,0.50,2.20,-0.52,0.03,19.08,-6.91,-37.12,
72053.5,0.02,0.19,0.94,2.15,-0.59,0.01,19.08,-24.07,-29.93,
72053.6,0.11,0.57,0.63,2.00,-0.52,-0.01,18.91,-4.73,-37.28,
72053.7,0.02,0.19,0.93,1.85,-0.52,-0.06,18.14,-11.71,-37.11,
72053.8,0.02,0.19,0.91,1.77,-0.52,-0.10,19.41,-21.38,-32.54,
72053.9,0.06,0.31,0.67,0.19,-0.18,0.03,17.24,-12.80,-37.28,
72054.1,0.10,0.67,0.67,0.09,0.04,-0.03,20.25,-21.88,-31.07,
72054.2,0.14,0.65,0.74,0.09,0.01,-0.03,19.53,-22.78,-30.54,
72054.3,0.11,0.65,0.68,-0.08,-0.12,-0.07,18.24,-22.89,-32.38,
72054.4,0.10,0.65,0.69,0.05,-0.02,-0.04,20.25,-22.34,-31.17,
72054.5,0.07,0.66,0.69,0.05,0.02,-0.04,18.53,-21.33,-33.24,
72054.6,0.08,0.66,0.68,0.04,0.01,-0.04,18.71,-21.13,-31.15,
72054.7,0.09,0.67,0.68,0.03,-0.01,-0.03,14.90,-22.89,-32.71,
72054.8,0.08,0.67,0.70,0.03,-0.02,-0.01,15.73,-21.69,-31.88,
72054.9,0.08,0.67,0.71,0.03,-0.02,-0.00,18.61,-20.89,-31.39,
72055.1,0.05,0.30,0.86,-1.92,0.29,-0.88,24.86,-4.73,-33.73,
72055.2,0.04,0.28,0.87,-1.99,0.35,-0.90,22.08,-14.99,-33.85,
72055.3,-0.17,-0.14,1.18,-1.82,0.23,-0.81,26.38,10.48,-31.19,
72055.4,-0.04,0.18,0.97,-1.87,0.26,-0.85,22.25,-12.46,-34.01,
72055.5,-0.07,0.21,1.01,-2.04,0.38,-0.85,26.26,14.44,-31.40,
72055.6,-0.04,0.24,1.12,-2.26,0.29,-0.67,23.75,-9.61,-33.53,
72055.7,-0.03,0.20,1.17,-2.38,0.26,-0.71,26.38,13.22,-30.38,
72055.8,-0.04,0.13,1.23,-2.42,0.27,-0.79,24.00,-8.85,-33.28,
72055.9,-0.05,0.08,1.27,-2.42,0.30,-0.86,24.42,-7.59,-32.87,
72056.1,-0.12,-0.29,0.93,-0.01,-0.02,0.01,27.60,14.11,-28.78,
72056.2,-0.12,-0.29,0.93,-0.01,-0.03,0.02,27.93,12.09,-29.44,
72056.3,-0.17,-0.30,0.91,-0.01,-0.02,0.01,27.76,12.93,-28.95,
72056.4,-0.13,-0.29,0.93,-0.01,0.01,-0.01,27.33,13.91,-28.91,
72056.5,-0.14,-0.29,0.94,-0.00,0.04,-0.02,26.93,12.43,-30.09,
72056.6,-0.14,-0.30,0.93,-0.02,-0.06,-0.00,26.49,12.98,-29.32,
72056.7,-0.15,-0.30,0.93,-0.02,-0.01,-0.03,27.26,12.09,-30.09,
72056.8,-0.15,-0.31,0.92,0.00,0.05,-0.02,26.93,12.76,-29.11,
72056.9,-0.16,-0.29,0.92,0.01,0.06,-0.02,26.82,12.86,-29.81,
72057.1,-0.14,-0.29,0.93,0.01,0.05,0.01,26.63,12.93,-29.48,
72057.2,-0.14,-0.29,0.93,0.01,0.04,0.01,26.59,13.43,-28.78,
72057.3,-0.15,-0.29,0.93,0.01,0.04,0.01,25.59,12.09,-28.46,
72057.4,-0.15,-0.29,0.93,0.02,0.07,0.00,26.84,13.35,-29.41,
72057.5,-0.15,-0.29,0.93,0.01,0.05,0.01,27.26,13.10,-30.09,
72057.6,-0.15,-0.30,0.93,-0.01,0.02,0.01,27.09,13.60,-29.60,
72057.7,-0.16,-0.29,0.92,-0.01,-0.01,0.01,27.81,13.17,-29.55,
72057.8,-0.14,-0.28,0.92,0.02,0.07,-0.01,28.93,12.76,-29.77,
72057.9,-0.14,-0.29,0.93,0.03,0.07,-0.02,26.26,12.76,-28.46,
72058.1,-0.14,-0.30,0.91,-0.01,-0.02,0.01,26.76,14.95,-28.62,
72058.2,-0.15,-0.31,0.92,-0.01,-0.02,0.01,26.43,12.26,-28.29,
72058.3,-0.15,-0.30,0.91,-0.01,-0.02,0.00,26.26,13.43,-29.11,
72058.4,-0.15,-0.30,0.91,-0.02,-0.01,0.01,27.76,12.93,-26.99,
72058.5,-0.15,-0.29,0.93,-0.01,-0.01,0.00,27.76,13.60,-29.60,
72058.6,-0.15,-0.29,0.92,0.00,0.06,0.04,26.93,14.44,-28.13,
72058.7,-0.15,-0.29,0.92,0.02,-0.01,0.03,27.49,13.39,-29.69,
72058.8,-0.15,-0.30,0.92,-0.00,0.02,0.03,25.76,12.93,-28.95,
72058.9,-0.14,-0.29,0.92,-0.01,-0.01,0.00,27.32,13.04,-29.20,
72059.1,-0.15,-0.29,0.93,-0.00,0.01,-0.01,27.58,13.44,-28.81,
72059.2,-0.15,-0.30,0.93,-0.01,0.01,-0.01,26.76,14.21,-27.21,
72059.4,-0.15,-0.30,0.92,0.01,0.01,-0.01,27.60,13.10,-29.11,
72059.8,-0.15,-0.29,0.91,0.01,0.02,0.00,27.21,13.11,-29.62,
72059.9,-0.16,-0.30,0.93,-0.00,0.00,-0.01,27.26,13.77,-29.77,
