Relative Time (to start of segment),aclx 1,aclx 2,aclx 3,aclx 4,aclx 5,aclx 6,acly 1,acly 2,acly 3,acly 4,acly 5,acly 6,aclz 1,aclz 2,aclz 3,aclz 4,aclz 5,aclz 6,gyrx 1,gyrx 2,gyrx 3,gyrx 4,gyrx 5,gyrx 6,gyry 1,gyry 2,gyry 3,gyry 4,gyry 5,gyry 6,gyrz 1,gyrz 2,gyrz 3,gyrz 4,gyrz 5,gyrz 6,magr 1,magr 2,magr 3,magr 4,magr 5,magr 6,magphi 1,magphi 2,magphi 3,magphi 4,magphi 5,magphi 6,magtheta 1,magtheta 2,magtheta 3,magtheta 4,magtheta 5,magtheta 6,
0.000000,-1.711698,,,,,,-1.481714,,,,,,-0.576093,,,,,,-0.850752,,,,,,0.184384,,,,,,-0.247850,,,,,,0.000000,,,,,,-1.099230,,,,,,1.305266,,,,,,
0.026316,-1.535123,,,,,,-1.382135,,,,,,-0.341402,,,,,,-0.518459,,,,,,-0.088253,,,,,,0.040451,,,,,,0.000000,,,,,,-1.105264,,,,,,1.047927,,,,,,
0.052632,-1.380842,,,,,,-1.319438,,,,,,-0.094890,,,,,,-0.174607,,,,,,-0.360890,,,,,,0.313579,,,,,,0.000000,,,,,,-1.108948,,,,,,0.798569,,,,,,
0.078947,-1.123480,,,,,,-1.155205,,,,,,0.219165,,,,,,0.177913,,,,,,-0.619474,,,,,,0.571533,,,,,,0.000000,,,,,,-0.697406,,,,,,0.293165,,,,,,
0.131579,-0.923036,,,,,,-1.066441,,,,,,0.496713,,,,,,0.539102,,,,,,-0.844329,,,,,,0.799139,,,,,,0.000000,,,,,,-0.703848,,,,,,0.048612,,,,,,
0.157895,-0.719272,,,,,,-0.962232,,,,,,0.778896,,,,,,0.903180,,,,,,-1.057942,,,,,,1.019159,,,,,,0.000000,,,,,,-0.712712,,,,,,-0.230179,,,,,,
0.184211,-0.368665,,,,,,-0.716613,,,,,,1.016513,,,,,,1.275927,,,,,,-1.249069,,,,,,1.208831,,,,,,0.000000,,,,,,-0.315253,,,,,,-0.512318,,,,,,
0.210526,-0.169574,,,,,,-0.607829,,,,,,1.285875,,,,,,1.599552,,,,,,-1.527327,,,,,,1.504719,,,,,,0.000000,,,,,,-0.324487,,,,,,-0.814165,,,,,,
0.236842,0.276083,,,,,,-0.374306,,,,,,1.834914,,,,,,2.277142,,,,,,-2.050116,,,,,,2.056664,,,,,,0.000000,,,,,,-0.238147,,,,,,-1.492599,,,,,,
0.263158,0.544853,,,,,,-0.079552,,,,,,1.767374,,,,,,1.593773,,,,,,-1.434574,,,,,,1.436437,,,,,,0.000000,,,,,,0.463790,,,,,,-1.504017,,,,,,
0.289474,0.777092,,,,,,0.244723,,,,,,1.458325,,,,,,1.226805,,,,,,-1.024213,,,,,,0.981224,,,,,,0.000000,,,,,,0.866499,,,,,,-1.513239,,,,,,
0.315789,0.850404,,,,,,0.488321,,,,,,1.080261,,,,,,0.882954,,,,,,-0.619474,,,,,,0.685336,,,,,,0.000000,,,,,,0.852322,,,,,,-1.209929,,,,,,
0.342105,0.985315,,,,,,0.792934,,,,,,0.737454,,,,,,0.536213,,,,,,-0.268137,,,,,,0.457730,,,,,,0.000000,,,,,,1.256288,,,,,,-1.160235,,,,,,
0.394737,1.182824,,,,,,1.119975,,,,,,0.427425,,,,,,0.149018,,,,,,0.097253,,,,,,0.063212,,,,,,0.000000,,,,,,1.661064,,,,,,-1.106130,,,,,,
0.421053,1.037257,,,,,,1.100603,,,,,,0.113540,,,,,,-0.180386,,,,,,0.367079,,,,,,-0.111286,,,,,,0.000000,,,,,,1.263105,,,,,,-0.754692,,,,,,
0.447368,1.274535,,,,,,1.411276,,,,,,-0.193477,,,,,,-0.452000,,,,,,0.718416,,,,,,-0.392001,,,,,,0.000000,,,,,,1.669800,,,,,,-0.628546,,,,,,
0.473684,1.218910,,,,,,1.512605,,,,,,-0.537535,,,,,,-0.810299,,,,,,1.145641,,,,,,-0.877561,,,,,,0.000000,,,,,,1.676664,,,,,,-0.352406,,,,,,
0.500000,1.204637,,,,,,1.590195,,,,,,-1.118404,,,,,,-0.840278,,,,,,1.323768,,,,,,-1.092839,,,,,,0.000000,,,,,,1.128680,,,,,,-0.034758,,,,,,
0.555556,1.067625,,,,,,1.334484,,,,,,-1.247787,,,,,,-0.879647,,,,,,1.339578,,,,,,-1.211384,,,,,,0.000000,,,,,,0.480570,,,,,,0.393643,,,,,,
0.611111,0.721374,,,,,,0.944048,,,,,,-1.162011,,,,,,-0.891206,,,,,,1.193423,,,,,,-1.188623,,,,,,0.000000,,,,,,0.081020,,,,,,0.552473,,,,,,
0.666667,0.345915,,,,,,0.566233,,,,,,-1.110292,,,,,,-0.905653,,,,,,1.072563,,,,,,-1.203797,,,,,,0.000000,,,,,,-0.318314,,,,,,0.798092,,,,,,
0.722222,-0.095578,,,,,,0.153666,,,,,,-1.085517,,,,,,-0.882537,,,,,,0.926407,,,,,,-1.044473,,,,,,0.000000,,,,,,-0.716583,,,,,,1.061555,,,,,,
0.833333,-0.333829,,,,,,-0.060613,,,,,,-1.014438,,,,,,-0.922990,,,,,,0.850518,,,,,,-1.052059,,,,,,0.000000,,,,,,-0.717170,,,,,,1.033625,,,,,,
0.888889,-0.801341,,,,,,-0.467175,,,,,,-0.988183,,,,,,-0.975001,,,,,,0.788683,,,,,,-1.067233,,,,,,0.000000,,,,,,-1.116270,,,,,,1.232219,,,,,,
0.944444,-0.990028,,,,,,-0.671647,,,,,,-0.921110,,,,,,-0.951885,,,,,,0.639716,,,,,,-0.907909,,,,,,0.000000,,,,,,-1.114300,,,,,,1.331345,,,,,,
1.000000,-1.334356,,,,,,-0.914165,,,,,,-0.825318,,,,,,-0.925880,,,,,,0.496371,,,,,,-0.740997,,,,,,0.000000,,,,,,-1.111870,,,,,,1.416721,,,,,,
0.000000,,-1.278916,,,,,,-1.197385,,,,,,-0.057914,,,,,,-0.312518,,,,,,0.006320,,,,,,-1.183271,,,,,,0.000000,,,,,,-1.234869,,,,,,1.324042,,,,,
0.025000,,-1.292641,,,,,,-1.173451,,,,,,0.430249,,,,,,-0.313069,,,,,,0.000083,,,,,,-1.165375,,,,,,0.000000,,,,,,-1.238555,,,,,,1.145311,,,,,
0.050000,,-1.170458,,,,,,-1.105502,,,,,,0.667607,,,,,,-0.011177,,,,,,-0.252721,,,,,,-0.560892,,,,,,0.000000,,,,,,-1.244093,,,,,,0.795942,,,,,
0.075000,,-1.028165,,,,,,-1.028750,,,,,,0.931544,,,,,,0.288511,,,,,,-0.512177,,,,,,0.035637,,,,,,0.000000,,,,,,-0.975218,,,,,,0.385367,,,,,
0.100000,,-0.821028,,,,,,-0.894442,,,,,,1.205678,,,,,,0.588199,,,,,,-0.761655,,,,,,0.632166,,,,,,0.000000,,,,,,-0.717104,,,,,,-0.062935,,,,,
0.150000,,-0.646942,,,,,,-0.804609,,,,,,1.489714,,,,,,0.892295,,,,,,-0.987848,,,,,,1.236649,,,,,,0.000000,,,,,,-0.449755,,,,,,-0.480211,,,,,
0.175000,,-0.420554,,,,,,-0.649973,,,,,,1.692584,,,,,,1.203001,,,,,,-1.190756,,,,,,1.833178,,,,,,0.000000,,,,,,-0.196360,,,,,,-0.952307,,,,,
0.200000,,-0.234025,,,,,,-0.549544,,,,,,1.931813,,,,,,1.310977,,,,,,-1.230672,,,,,,1.236649,,,,,,0.000000,,,,,,0.070487,,,,,,-1.362658,,,,,
0.225000,,0.035839,,,,,,-0.363441,,,,,,2.126601,,,,,,1.615072,,,,,,-1.486803,,,,,,1.849086,,,,,,0.000000,,,,,,0.321114,,,,,,-1.695217,,,,,
0.250000,,0.503740,,,,,,-0.071606,,,,,,2.000573,,,,,,2.218580,,,,,,-1.849792,,,,,,2.762770,,,,,,0.000000,,,,,,0.802824,,,,,,-2.194076,,,,,
0.275000,,0.686793,,,,,,0.134548,,,,,,1.732770,,,,,,2.273945,,,,,,-1.742933,,,,,,2.580828,,,,,,0.000000,,,,,,1.083530,,,,,,-1.866869,,,,,
0.300000,,0.793313,,,,,,0.342219,,,,,,1.358996,,,,,,2.005107,,,,,,-1.387012,,,,,,1.880901,,,,,,0.000000,,,,,,1.065848,,,,,,-1.597252,,,,,
0.325000,,0.862964,,,,,,0.492711,,,,,,0.995168,,,,,,1.709826,,,,,,-1.167472,,,,,,1.324140,,,,,,0.000000,,,,,,1.059660,,,,,,-1.298891,,,,,
0.350000,,0.988696,,,,,,0.686060,,,,,,0.557862,,,,,,1.401324,,,,,,-0.901362,,,,,,0.719657,,,,,,0.000000,,,,,,1.043541,,,,,,-1.093152,,,,,
0.400000,,1.030092,,,,,,0.814482,,,,,,0.227843,,,,,,1.114857,,,,,,-0.575378,,,,,,0.011776,,,,,,0.000000,,,,,,1.042077,,,,,,-0.790358,,,,,
0.425000,,1.147526,,,,,,0.998465,,,,,,-0.173134,,,,,,0.989253,,,,,,-0.555420,,,,,,0.592398,,,,,,0.000000,,,,,,1.026567,,,,,,-0.578910,,,,,
0.450000,,1.179032,,,,,,1.105261,,,,,,-0.479606,,,,,,0.707193,,,,,,-0.162909,,,,,,-0.131391,,,,,,0.000000,,,,,,1.026516,,,,,,-0.548145,,,,,
0.475000,,1.201515,,,,,,1.205145,,,,,,-0.745022,,,,,,0.398691,,,,,,0.073263,,,,,,-0.704059,,,,,,0.000000,,,,,,1.026368,,,,,,-0.484138,,,,,
0.500000,,1.216311,,,,,,1.370529,,,,,,-1.175960,,,,,,-0.188566,,,,,,0.582613,,,,,,-1.711199,,,,,,0.000000,,,,,,1.027607,,,,,,-0.413725,,,,,
0.517241,,1.208868,,,,,,1.363960,,,,,,-1.106271,,,,,,-0.381380,,,,,,0.908181,,,,,,-0.863134,,,,,,0.000000,,,,,,1.026482,,,,,,-0.535782,,,,,
0.534483,,1.191346,,,,,,1.364744,,,,,,-1.153833,,,,,,-0.443081,,,,,,1.134374,,,,,,-0.751781,,,,,,0.000000,,,,,,1.026509,,,,,,-0.568606,,,,,
0.551724,,1.134975,,,,,,1.369254,,,,,,-1.155324,,,,,,-0.506985,,,,,,1.284061,,,,,,-0.632476,,,,,,0.000000,,,,,,1.026238,,,,,,-0.485334,,,,,
0.568966,,1.072696,,,,,,1.336442,,,,,,-1.181737,,,,,,-0.614961,,,,,,1.353914,,,,,,-0.409771,,,,,,0.000000,,,,,,1.032187,,,,,,-0.506190,,,,,
0.603448,,1.025582,,,,,,1.320111,,,,,,-1.170933,,,,,,-0.703104,,,,,,1.580107,,,,,,-0.242743,,,,,,0.000000,,,,,,1.031906,,,,,,-0.423561,,,,,
0.620690,,0.931779,,,,,,1.214796,,,,,,-1.118311,,,,,,-0.837523,,,,,,1.656614,,,,,,0.035637,,,,,,0.000000,,,,,,1.046491,,,,,,-0.438030,,,,,
0.637931,,0.931501,,,,,,1.176548,,,,,,-1.094540,,,,,,-0.969739,,,,,,1.802974,,,,,,0.282202,,,,,,0.000000,,,,,,1.047139,,,,,,-0.371632,,,,,
0.655172,,0.970077,,,,,,1.152150,,,,,,-1.089037,,,,,,-1.260612,,,,,,1.886133,,,,,,0.067452,,,,,,0.000000,,,,,,1.047924,,,,,,-0.383466,,,,,
0.672414,,0.973469,,,,,,1.123938,,,,,,-1.164513,,,,,,-1.351235,,,,,,1.828753,,,,,,-0.395852,,,,,,0.000000,,,,,,1.052772,,,,,,-0.343254,,,,,
0.689655,,0.766468,,,,,,0.855443,,,,,,-1.138018,,,,,,-1.194505,,,,,,1.184270,,,,,,-0.226836,,,,,,0.000000,,,,,,0.547293,,,,,,0.095846,,,,,
0.706897,,0.517692,,,,,,0.575378,,,,,,-0.947290,,,,,,-1.141619,,,,,,0.981361,,,,,,-0.306373,,,,,,0.000000,,,,,,0.295542,,,,,,0.231211,,,,,
0.724138,,0.309140,,,,,,0.331895,,,,,,-0.777184,,,,,,-1.075511,,,,,,0.765147,,,,,,-0.385910,,,,,,0.000000,,,,,,0.038213,,,,,,0.402172,,,,,
0.741379,,0.024981,,,,,,0.069848,,,,,,-0.610984,,,,,,-0.985164,,,,,,0.542281,,,,,,-0.473401,,,,,,0.000000,,,,,,-0.213431,,,,,,0.555594,,,,,
0.775862,,-0.187483,,,,,,-0.108577,,,,,,-0.490360,,,,,,-0.890409,,,,,,0.296130,,,,,,-0.560892,,,,,,0.000000,,,,,,-0.479368,,,,,,0.761473,,,,,
0.793103,,-0.486569,,,,,,-0.358332,,,,,,-0.366313,,,,,,-0.791248,,,,,,0.003410,,,,,,-0.616568,,,,,,0.000000,,,,,,-0.731673,,,,,,0.927911,,,,,
0.810345,,-0.772979,,,,,,-0.613840,,,,,,-0.238878,,,,,,-0.557667,,,,,,-0.249394,,,,,,-0.187067,,,,,,0.000000,,,,,,-0.983426,,,,,,1.063649,,,,,
0.827586,,-1.039942,,,,,,-0.886687,,,,,,-0.091657,,,,,,-0.434266,,,,,,-0.468935,,,,,,-0.362049,,,,,,0.000000,,,,,,-1.235846,,,,,,1.228269,,,,,
0.844828,,-1.348611,,,,,,-1.158375,,,,,,0.165007,,,,,,-0.461260,,,,,,-0.341701,,,,,,-0.547967,,,,,,0.000000,,,,,,-1.236203,,,,,,1.141162,,,,,
0.862069,,-1.317432,,,,,,-1.165288,,,,,,0.089964,,,,,,-0.482745,,,,,,-0.442324,,,,,,-0.362049,,,,,,0.000000,,,,,,-1.235742,,,,,,1.145170,,,,,
0.879310,,-1.300445,,,,,,-1.171450,,,,,,0.046140,,,,,,-0.460709,,,,,,-0.395754,,,,,,-0.385910,,,,,,0.000000,,,,,,-1.235276,,,,,,1.168870,,,,,
0.896552,,-1.271634,,,,,,-1.176580,,,,,,0.033955,,,,,,-0.440877,,,,,,-0.365817,,,,,,-0.457494,,,,,,0.000000,,,,,,-1.234879,,,,,,1.144104,,,,,
0.913793,,-1.257817,,,,,,-1.180773,,,,,,-0.012248,,,,,,-0.423248,,,,,,-0.332554,,,,,,-0.529077,,,,,,0.000000,,,,,,-1.234905,,,,,,1.225561,,,,,
0.948276,,-1.221325,,,,,,-1.184886,,,,,,-0.013400,,,,,,-0.399009,,,,,,-0.239415,,,,,,-0.632476,,,,,,0.000000,,,,,,-1.234306,,,,,,1.159253,,,,,
0.965517,,-1.209327,,,,,,-1.184522,,,,,,-0.037669,,,,,,-0.374769,,,,,,-0.132972,,,,,,-0.751781,,,,,,0.000000,,,,,,-1.234714,,,,,,1.183747,,,,,
0.982759,,-1.201859,,,,,,-1.188876,,,,,,-0.050543,,,,,,-0.370362,,,,,,-0.119666,,,,,,-0.704059,,,,,,0.000000,,,,,,-1.234281,,,,,,1.206823,,,,,
1.000000,,-1.196241,,,,,,-1.187037,,,,,,-0.043389,,,,,,-0.339512,,,,,,-0.016549,,,,,,-0.839272,,,,,,0.000000,,,,,,-1.234831,,,,,,1.183222,,,,,
0.000000,,,-1.517879,,,,,,-1.571784,,,,,,0.320945,,,,,,0.170873,,,,,,0.028548,,,,,,1.460895,,,,,,0.000000,,,,,,-1.484596,,,,,,1.641607,,,,
0.037037,,,-1.445911,,,,,,-1.559125,,,,,,0.511804,,,,,,0.170873,,,,,,0.033111,,,,,,1.460895,,,,,,0.000000,,,,,,-1.484089,,,,,,1.702124,,,,
0.055556,,,-1.518221,,,,,,-1.566460,,,,,,0.990231,,,,,,0.170873,,,,,,0.037674,,,,,,1.460895,,,,,,0.000000,,,,,,-1.485039,,,,,,1.698126,,,,
0.074074,,,-1.515707,,,,,,-1.552405,,,,,,1.376350,,,,,,0.170873,,,,,,0.042237,,,,,,1.451059,,,,,,0.000000,,,,,,-1.485233,,,,,,1.675648,,,,
0.092593,,,-1.474642,,,,,,-1.459460,,,,,,1.677488,,,,,,0.170873,,,,,,0.042237,,,,,,1.441223,,,,,,0.000000,,,,,,-1.181525,,,,,,1.404096,,,,
0.111111,,,-1.481455,,,,,,-1.339287,,,,,,1.772199,,,,,,0.168572,,,,,,0.041097,,,,,,1.438764,,,,,,0.000000,,,,,,-1.144222,,,,,,1.408676,,,,
0.129630,,,-1.385048,,,,,,-1.154019,,,,,,1.204883,,,,,,0.170873,,,,,,0.023985,,,,,,1.411716,,,,,,0.000000,,,,,,-1.182811,,,,,,1.461745,,,,
0.148148,,,-1.098291,,,,,,-0.897247,,,,,,1.017212,,,,,,0.325508,,,,,,-0.094659,,,,,,1.047797,,,,,,0.000000,,,,,,-0.895964,,,,,,1.133360,,,,
0.166667,,,-0.813581,,,,,,-0.652596,,,,,,0.855750,,,,,,0.419394,,,,,,-0.185923,,,,,,0.398644,,,,,,0.000000,,,,,,-0.606770,,,,,,0.706100,,,,
0.185185,,,-0.591003,,,,,,-0.405854,,,,,,0.551127,,,,,,0.609007,,,,,,-0.409519,,,,,,0.251109,,,,,,0.000000,,,,,,-0.318443,,,,,,0.183323,,,,
0.222222,,,-0.223309,,,,,,-0.115998,,,,,,-0.108737,,,,,,0.796779,,,,,,-0.610300,,,,,,0.103574,,,,,,0.000000,,,,,,-0.032426,,,,,,-0.109938,,,,
0.240741,,,0.079561,,,,,,0.133054,,,,,,-0.665950,,,,,,0.975346,,,,,,-0.820207,,,,,,-0.142317,,,,,,0.000000,,,,,,0.255961,,,,,,-0.490664,,,,
0.259259,,,0.350258,,,,,,0.306091,,,,,,-1.186577,,,,,,1.153914,,,,,,-1.025551,,,,,,-0.417715,,,,,,0.000000,,,,,,0.239855,,,,,,-0.561880,,,,
0.277778,,,0.686270,,,,,,0.486282,,,,,,-1.391877,,,,,,1.328799,,,,,,-1.208079,,,,,,-0.702949,,,,,,0.000000,,,,,,0.527310,,,,,,-0.870191,,,,
0.296296,,,1.169871,,,,,,0.841302,,,,,,-1.228688,,,,,,1.659701,,,,,,-1.504117,,,,,,-1.294318,,,,,,0.000000,,,,,,1.103432,,,,,,-1.684048,,,,
0.314815,,,1.119046,,,,,,0.932470,,,,,,-1.237775,,,,,,1.665684,,,,,,-1.454492,,,,,,-1.312760,,,,,,0.000000,,,,,,1.102857,,,,,,-1.423155,,,,
0.333333,,,1.120281,,,,,,1.002546,,,,,,-1.290320,,,,,,1.569957,,,,,,-1.440802,,,,,,-0.830813,,,,,,0.000000,,,,,,1.099913,,,,,,-1.173280,,,,
0.351852,,,1.134364,,,,,,1.054014,,,,,,-1.346037,,,,,,1.378504,,,,,,-1.317596,,,,,,-0.624264,,,,,,0.000000,,,,,,1.097702,,,,,,-0.970351,,,,
0.370370,,,1.139028,,,,,,1.090395,,,,,,-1.337374,,,,,,1.164959,,,,,,-1.171574,,,,,,-0.506236,,,,,,0.000000,,,,,,1.098033,,,,,,-0.891469,,,,
0.407407,,,1.128858,,,,,,1.139508,,,,,,-1.311426,,,,,,0.955096,,,,,,-1.007298,,,,,,-0.270181,,,,,,0.000000,,,,,,1.096308,,,,,,-0.700009,,,,
0.425926,,,1.116586,,,,,,1.182258,,,,,,-1.164651,,,,,,0.743393,,,,,,-0.838460,,,,,,-0.014454,,,,,,0.000000,,,,,,1.094796,,,,,,-0.696624,,,,
0.444444,,,1.055638,,,,,,1.221323,,,,,,-0.982414,,,,,,0.539053,,,,,,-0.706127,,,,,,0.241273,,,,,,0.000000,,,,,,1.094596,,,,,,-0.591224,,,,
0.462963,,,1.048312,,,,,,1.235393,,,,,,-0.986943,,,,,,0.343917,,,,,,-0.623990,,,,,,0.506836,,,,,,0.000000,,,,,,1.093481,,,,,,-0.386898,,,,
0.481481,,,1.108207,,,,,,1.245170,,,,,,-0.943622,,,,,,-0.028175,,,,,,-0.533866,,,,,,1.106811,,,,,,0.000000,,,,,,1.091787,,,,,,-0.550080,,,,
0.500000,,,1.110287,,,,,,1.248324,,,,,,-0.995948,,,,,,-0.020581,,,,,,-0.646806,,,,,,1.047797,,,,,,0.000000,,,,,,1.091360,,,,,,-0.567129,,,,
0.527778,,,1.047168,,,,,,1.204878,,,,,,-0.914133,,,,,,-0.254375,,,,,,-0.350198,,,,,,0.772399,,,,,,0.000000,,,,,,1.094308,,,,,,-0.638505,,,,
0.555556,,,0.917551,,,,,,1.111470,,,,,,-0.760077,,,,,,-0.473443,,,,,,-0.108348,,,,,,0.585521,,,,,,0.000000,,,,,,1.106372,,,,,,-0.733029,,,,
0.583333,,,0.854548,,,,,,0.936779,,,,,,-0.425446,,,,,,-0.698033,,,,,,0.133501,,,,,,0.359301,,,,,,0.000000,,,,,,1.124517,,,,,,-0.904752,,,,
0.638889,,,0.602563,,,,,,0.697931,,,,,,-0.027634,,,,,,-0.836100,,,,,,0.316029,,,,,,0.074067,,,,,,0.000000,,,,,,0.834789,,,,,,-0.801062,,,,
0.666667,,,0.543108,,,,,,0.485611,,,,,,0.093168,,,,,,-0.924463,,,,,,0.580695,,,,,,0.005218,,,,,,0.000000,,,,,,0.546710,,,,,,-0.800805,,,,
0.694444,,,0.441123,,,,,,0.278754,,,,,,0.134686,,,,,,-1.138008,,,,,,0.927498,,,,,,-0.270181,,,,,,0.000000,,,,,,0.261315,,,,,,-0.726091,,,,
0.722222,,,0.342725,,,,,,0.223306,,,,,,0.339383,,,,,,-1.369961,,,,,,1.310807,,,,,,-0.712785,,,,,,0.000000,,,,,,0.264402,,,,,,-0.641338,,,,
0.750000,,,0.131986,,,,,,0.012324,,,,,,0.890286,,,,,,-1.815459,,,,,,2.017532,,,,,,-1.404969,,,,,,0.000000,,,,,,0.167549,,,,,,-0.791697,,,,
0.777778,,,-0.074835,,,,,,-0.202387,,,,,,1.094035,,,,,,-1.898300,,,,,,2.031792,,,,,,-1.952078,,,,,,0.000000,,,,,,-0.304072,,,,,,-0.274976,,,,
0.805556,,,-0.226601,,,,,,-0.423958,,,,,,1.161373,,,,,,-1.662665,,,,,,1.853827,,,,,,-1.735693,,,,,,0.000000,,,,,,-0.601180,,,,,,0.006286,,,,
0.833333,,,-0.450346,,,,,,-0.563324,,,,,,0.998315,,,,,,-1.415984,,,,,,1.684989,,,,,,-1.509473,,,,,,0.000000,,,,,,-0.905080,,,,,,0.364487,,,,
0.861111,,,-0.505288,,,,,,-0.629487,,,,,,0.684096,,,,,,-1.241098,,,,,,1.552656,,,,,,-1.175061,,,,,,0.000000,,,,,,-0.901784,,,,,,0.598962,,,,
0.916667,,,-0.710530,,,,,,-0.729994,,,,,,0.649559,,,,,,-1.126963,,,,,,1.297117,,,,,,-1.047197,,,,,,0.000000,,,,,,-0.899664,,,,,,0.750174,,,,
0.944444,,,-0.880023,,,,,,-0.833403,,,,,,0.682129,,,,,,-0.889486,,,,,,0.964004,,,,,,-0.732456,,,,,,0.000000,,,,,,-0.901089,,,,,,0.807984,,,,
0.972222,,,-1.075611,,,,,,-1.082754,,,,,,0.697518,,,,,,-0.640965,,,,,,0.708464,,,,,,-0.250509,,,,,,0.000000,,,,,,-1.190816,,,,,,1.067562,,,,
1.000000,,,-1.259059,,,,,,-1.329639,,,,,,0.603093,,,,,,-0.388761,,,,,,0.430109,,,,,,0.280616,,,,,,0.000000,,,,,,-1.482551,,,,,,1.368935,,,,
0.000000,,,,-1.078345,,,,,,-1.236703,,,,,,-0.501940,,,,,,-0.366095,,,,,,0.384066,,,,,,0.063729,,,,,,0.000000,,,,,,-1.138387,,,,,,1.194094,,,
0.019231,,,,-1.007674,,,,,,-1.204811,,,,,,-0.147096,,,,,,0.024191,,,,,,-0.022328,,,,,,0.452915,,,,,,0.000000,,,,,,-1.141071,,,,,,0.957063,,,
0.038462,,,,-0.944400,,,,,,-1.166717,,,,,,0.182363,,,,,,0.282943,,,,,,-0.337974,,,,,,0.810966,,,,,,0.000000,,,,,,-1.144648,,,,,,0.742284,,,
0.057692,,,,-0.807231,,,,,,-1.050850,,,,,,0.526559,,,,,,0.565415,,,,,,-0.618110,,,,,,1.215719,,,,,,0.000000,,,,,,-0.867194,,,,,,0.317077,,,
0.096154,,,,-0.746999,,,,,,-1.007925,,,,,,0.802282,,,,,,0.908263,,,,,,-0.910082,,,,,,1.745012,,,,,,0.000000,,,,,,-0.870275,,,,,,0.178764,,,
0.115385,,,,-0.561318,,,,,,-0.850301,,,,,,1.084455,,,,,,1.087233,,,,,,-1.119198,,,,,,0.873236,,,,,,0.000000,,,,,,-0.600419,,,,,,-0.099135,,,
0.134615,,,,-0.354966,,,,,,-0.681459,,,,,,1.367163,,,,,,1.214453,,,,,,-1.052123,,,,,,0.001459,,,,,,0.000000,,,,,,-0.332233,,,,,,-0.403214,,,
0.153846,,,,-0.291938,,,,,,-0.652867,,,,,,1.704790,,,,,,1.570238,,,,,,-1.379605,,,,,,0.499617,,,,,,0.000000,,,,,,-0.335047,,,,,,-0.600445,,,
0.173077,,,,-0.079590,,,,,,-0.503963,,,,,,2.279543,,,,,,2.223050,,,,,,-2.000540,,,,,,1.093126,,,,,,0.000000,,,,,,-0.240256,,,,,,-1.066864,,,
0.192308,,,,0.132868,,,,,,-0.255077,,,,,,2.117494,,,,,,2.316309,,,,,,-2.137155,,,,,,1.371393,,,,,,0.000000,,,,,,0.202055,,,,,,-0.994622,,,
0.211538,,,,0.363529,,,,,,-0.001357,,,,,,1.678044,,,,,,1.995024,,,,,,-1.880693,,,,,,0.608589,,,,,,0.000000,,,,,,0.475604,,,,,,-0.986277,,,
0.230769,,,,0.477250,,,,,,0.163351,,,,,,1.304795,,,,,,1.714709,,,,,,-1.580830,,,,,,0.001459,,,,,,0.000000,,,,,,0.468185,,,,,,-0.808946,,,
0.250000,,,,0.622680,,,,,,0.394930,,,,,,1.018145,,,,,,1.309329,,,,,,-1.351986,,,,,,-0.932586,,,,,,0.000000,,,,,,0.741779,,,,,,-0.834842,,,
0.288462,,,,0.654056,,,,,,0.507663,,,,,,0.777549,,,,,,1.072139,,,,,,-1.206000,,,,,,-0.527833,,,,,,0.000000,,,,,,0.742458,,,,,,-0.827168,,,
0.307692,,,,0.669382,,,,,,0.612710,,,,,,0.538502,,,,,,0.936294,,,,,,-1.280966,,,,,,0.219403,,,,,,0.000000,,,,,,0.744057,,,,,,-0.840208,,,
0.326923,,,,0.823923,,,,,,0.863845,,,,,,0.190123,,,,,,0.580509,,,,,,-0.945592,,,,,,-0.325457,,,,,,0.000000,,,,,,1.017618,,,,,,-0.773688,,,
0.346154,,,,0.985644,,,,,,1.084817,,,,,,-0.099009,,,,,,0.226880,,,,,,-0.570763,,,,,,-0.745777,,,,,,0.000000,,,,,,1.293198,,,,,,-0.802167,,,
0.365385,,,,1.109113,,,,,,1.301839,,,,,,-0.657178,,,,,,-0.522964,,,,,,0.241039,,,,,,-1.603932,,,,,,0.000000,,,,,,1.294438,,,,,,-0.867492,,,
0.384615,,,,1.155033,,,,,,1.303349,,,,,,-0.709364,,,,,,-0.510565,,,,,,0.384066,,,,,,-0.979289,,,,,,0.000000,,,,,,1.295024,,,,,,-0.843606,,,
0.403846,,,,1.170536,,,,,,1.308402,,,,,,-0.770214,,,,,,-0.504096,,,,,,0.340664,,,,,,-0.714642,,,,,,0.000000,,,,,,1.294925,,,,,,-0.864971,,,
0.423077,,,,1.200771,,,,,,1.316226,,,,,,-0.882950,,,,,,-0.426470,,,,,,0.376174,,,,,,-0.263187,,,,,,0.000000,,,,,,1.295169,,,,,,-0.853461,,,
0.442308,,,,1.264889,,,,,,1.337146,,,,,,-1.030345,,,,,,-0.344532,,,,,,0.411685,,,,,,0.297241,,,,,,0.000000,,,,,,1.293536,,,,,,-0.834415,,,
0.480769,,,,1.319616,,,,,,1.356742,,,,,,-1.170849,,,,,,-0.310032,,,,,,0.388011,,,,,,0.561887,,,,,,0.000000,,,,,,1.293638,,,,,,-0.788407,,,
0.500000,,,,1.386586,,,,,,1.364587,,,,,,-1.262417,,,,,,-0.282000,,,,,,0.356447,,,,,,0.779831,,,,,,0.000000,,,,,,1.293639,,,,,,-0.897668,,,
0.522727,,,,1.380266,,,,,,1.354340,,,,,,-1.361740,,,,,,-0.266906,,,,,,0.320936,,,,,,0.904371,,,,,,0.000000,,,,,,1.295221,,,,,,-0.896072,,,
0.545455,,,,1.313942,,,,,,1.322083,,,,,,-1.401892,,,,,,-0.284156,,,,,,0.293317,,,,,,0.982208,,,,,,0.000000,,,,,,1.301461,,,,,,-0.871189,,,
0.568182,,,,1.268197,,,,,,1.315576,,,,,,-1.411846,,,,,,-0.178499,,,,,,0.187773,,,,,,1.268259,,,,,,0.000000,,,,,,1.301298,,,,,,-0.947908,,,
0.590909,,,,1.032469,,,,,,1.129534,,,,,,-1.393798,,,,,,-0.184968,,,,,,0.171005,,,,,,1.464798,,,,,,0.000000,,,,,,0.746545,,,,,,-0.712271,,,
0.613636,,,,0.762982,,,,,,0.871214,,,,,,-1.205605,,,,,,-0.269062,,,,,,0.297263,,,,,,1.355826,,,,,,0.000000,,,,,,0.473667,,,,,,-0.569196,,,
0.636364,,,,0.466085,,,,,,0.597015,,,,,,-1.034804,,,,,,-0.372564,,,,,,0.352501,,,,,,1.184584,,,,,,0.000000,,,,,,0.203796,,,,,,-0.288918,,,
0.659091,,,,0.185826,,,,,,0.316524,,,,,,-0.869020,,,,,,-0.586035,,,,,,0.443249,,,,,,0.624157,,,,,,0.000000,,,,,,-0.069031,,,,,,-0.130488,,,
0.704545,,,,-0.118530,,,,,,0.054729,,,,,,-0.524556,,,,,,-0.745599,,,,,,0.640528,,,,,,0.281673,,,,,,0.000000,,,,,,-0.340248,,,,,,0.176717,,,
0.727273,,,,-0.378416,,,,,,-0.199815,,,,,,-0.158989,,,,,,-0.894382,,,,,,0.814133,,,,,,-0.091945,,,,,,0.000000,,,,,,-0.614464,,,,,,0.356248,,,
0.750000,,,,-0.570727,,,,,,-0.423022,,,,,,0.092183,,,,,,-1.030227,,,,,,0.968010,,,,,,-0.512266,,,,,,0.000000,,,,,,-0.893337,,,,,,0.494651,,,
0.772727,,,,-0.872394,,,,,,-0.689429,,,,,,0.266554,,,,,,-1.144509,,,,,,1.106105,,,,,,-0.963721,,,,,,0.000000,,,,,,-1.162897,,,,,,0.830705,,,
0.795455,,,,-1.213652,,,,,,-1.032567,,,,,,0.642096,,,,,,-1.374422,,,,,,1.399557,,,,,,-1.796579,,,,,,0.000000,,,,,,-1.150838,,,,,,1.203872,,,
0.818182,,,,-1.243171,,,,,,-1.040990,,,,,,0.591397,,,,,,-1.351511,,,,,,1.409915,,,,,,-1.851065,,,,,,0.000000,,,,,,-1.150206,,,,,,1.281590,,,
0.840909,,,,-1.267642,,,,,,-1.057351,,,,,,0.491966,,,,,,-1.276042,,,,,,1.390187,,,,,,-1.788795,,,,,,0.000000,,,,,,-1.149628,,,,,,1.350736,,,
0.863636,,,,-1.297635,,,,,,-1.065026,,,,,,0.399325,,,,,,-1.092759,,,,,,1.338894,,,,,,-1.384042,,,,,,0.000000,,,,,,-1.147747,,,,,,1.505377,,,
0.886364,,,,-1.310115,,,,,,-1.096104,,,,,,0.123136,,,,,,-0.961226,,,,,,1.169235,,,,,,-1.228368,,,,,,0.000000,,,,,,-1.146587,,,,,,1.528455,,,
0.931818,,,,-1.347492,,,,,,-1.123027,,,,,,-0.171843,,,,,,-0.840475,,,,,,1.015357,,,,,,-1.072693,,,,,,0.000000,,,,,,-1.144401,,,,,,1.704818,,,
0.954545,,,,-1.405635,,,,,,-1.165606,,,,,,-0.363432,,,,,,-0.728349,,,,,,0.869371,,,,,,-0.870317,,,,,,0.000000,,,,,,-1.142141,,,,,,1.860831,,,
0.977273,,,,-1.422000,,,,,,-1.179945,,,,,,-0.475388,,,,,,-0.633473,,,,,,0.719439,,,,,,-0.621238,,,,,,0.000000,,,,,,-1.142974,,,,,,1.868771,,,
1.000000,,,,-1.425772,,,,,,-1.191709,,,,,,-0.574190,,,,,,-0.545065,,,,,,0.605018,,,,,,-0.387726,,,,,,0.000000,,,,,,-1.143280,,,,,,1.851586,,,
0.000000,,,,,-1.297051,,,,,,-1.264808,,,,,,-0.268839,,,,,,0.903716,,,,,,-0.593891,,,,,,0.992897,,,,,,0.000000,,,,,,-1.269384,,,,,,1.950486,,
0.018519,,,,,-1.251195,,,,,,-1.243969,,,,,,-0.098496,,,,,,0.892577,,,,,,-0.760938,,,,,,1.084460,,,,,,0.000000,,,,,,-1.271892,,,,,,1.679130,,
0.055556,,,,,-1.208279,,,,,,-1.225447,,,,,,0.032518,,,,,,0.881438,,,,,,-0.901610,,,,,,1.185179,,,,,,0.000000,,,,,,-1.272376,,,,,,1.598797,,
0.074074,,,,,-1.088494,,,,,,-1.148762,,,,,,0.317887,,,,,,0.870299,,,,,,-1.024697,,,,,,1.295054,,,,,,0.000000,,,,,,-1.000686,,,,,,0.973712,,
0.092593,,,,,-0.954417,,,,,,-1.034489,,,,,,0.590975,,,,,,0.850806,,,,,,-1.297247,,,,,,1.340836,,,,,,0.000000,,,,,,-0.736132,,,,,,0.382934,,
0.111111,,,,,-0.909483,,,,,,-1.020266,,,,,,0.717782,,,,,,0.831313,,,,,,-1.640133,,,,,,1.386617,,,,,,0.000000,,,,,,-0.735691,,,,,,0.352858,,
0.129630,,,,,-0.641774,,,,,,-0.837609,,,,,,1.190540,,,,,,0.811123,,,,,,-2.640218,,,,,,1.550286,,,,,,0.000000,,,,,,-0.377698,,,,,,-0.349796,,
0.148148,,,,,-0.316630,,,,,,-0.588145,,,,,,1.561401,,,,,,0.881438,,,,,,-1.147784,,,,,,1.395773,,,,,,0.000000,,,,,,0.034053,,,,,,-0.800609,,
0.166667,,,,,-0.018033,,,,,,-0.313043,,,,,,1.299149,,,,,,0.806250,,,,,,-0.963153,,,,,,1.093616,,,,,,0.000000,,,,,,0.290821,,,,,,-1.075342,,
0.185185,,,,,0.259814,,,,,,-0.061127,,,,,,0.961817,,,,,,0.789542,,,,,,-0.866442,,,,,,0.919647,,,,,,0.000000,,,,,,0.551173,,,,,,-1.136406,,
0.203704,,,,,0.565803,,,,,,0.196847,,,,,,0.715868,,,,,,0.775618,,,,,,-0.778522,,,,,,0.745678,,,,,,0.000000,,,,,,0.810578,,,,,,-1.513781,,
0.240741,,,,,0.769942,,,,,,0.408850,,,,,,0.254846,,,,,,0.758909,,,,,,-0.725771,,,,,,0.562552,,,,,,0.000000,,,,,,0.795169,,,,,,-1.130777,,
0.259259,,,,,0.973978,,,,,,0.580608,,,,,,-0.175828,,,,,,0.714353,,,,,,-0.453220,,,,,,0.397739,,,,,,0.000000,,,,,,0.786830,,,,,,-0.829344,,
0.277778,,,,,1.244598,,,,,,0.841810,,,,,,-0.451622,,,,,,0.664228,,,,,,-0.092750,,,,,,0.205457,,,,,,0.000000,,,,,,1.044805,,,,,,-1.078844,,
0.296296,,,,,1.380263,,,,,,0.981235,,,,,,-0.905743,,,,,,0.591824,,,,,,0.434767,,,,,,-0.023450,,,,,,0.000000,,,,,,1.043824,,,,,,-0.904465,,
0.314815,,,,,1.616229,,,,,,1.245738,,,,,,-1.801158,,,,,,0.359994,,,,,,-0.207045,,,,,,-0.314161,,,,,,0.000000,,,,,,1.047533,,,,,,-0.818859,,
0.333333,,,,,1.559972,,,,,,1.255035,,,,,,-1.689350,,,,,,0.335627,,,,,,-0.163086,,,,,,-0.380544,,,,,,0.000000,,,,,,1.048385,,,,,,-0.767759,,
0.351852,,,,,1.473939,,,,,,1.264784,,,,,,-1.557471,,,,,,0.332842,,,,,,-0.163086,,,,,,-0.398857,,,,,,0.000000,,,,,,1.049498,,,,,,-0.698439,,
0.370370,,,,,1.365978,,,,,,1.271557,,,,,,-1.476770,,,,,,0.327273,,,,,,-0.092750,,,,,,-0.426326,,,,,,0.000000,,,,,,1.049557,,,,,,-0.521966,,
0.388889,,,,,1.286471,,,,,,1.264564,,,,,,-1.339545,,,,,,0.371829,,,,,,-0.075166,,,,,,-0.023450,,,,,,0.000000,,,,,,1.052324,,,,,,-0.610330,,
0.425926,,,,,1.202738,,,,,,1.265670,,,,,,-1.231445,,,,,,0.405246,,,,,,-0.189461,,,,,,0.004019,,,,,,0.000000,,,,,,1.054124,,,,,,-0.597652,,
0.444444,,,,,1.125411,,,,,,1.279480,,,,,,-1.156881,,,,,,0.444232,,,,,,-0.303757,,,,,,0.049801,,,,,,0.000000,,,,,,1.053799,,,,,,-0.622732,,
0.462963,,,,,1.020396,,,,,,1.286349,,,,,,-1.108410,,,,,,0.494358,,,,,,-0.286173,,,,,,0.123051,,,,,,0.000000,,,,,,1.055414,,,,,,-0.597520,,
0.481481,,,,,0.940741,,,,,,1.292158,,,,,,-1.085487,,,,,,0.538914,,,,,,-0.330133,,,,,,0.251239,,,,,,0.000000,,,,,,1.056120,,,,,,-0.568464,,
0.500000,,,,,0.812175,,,,,,1.295669,,,,,,-1.035859,,,,,,0.635684,,,,,,-0.474101,,,,,,0.592310,,,,,,0.000000,,,,,,1.058370,,,,,,-0.563684,,
0.525000,,,,,0.706148,,,,,,1.182432,,,,,,-1.048861,,,,,,0.580685,,,,,,-0.593891,,,,,,0.654115,,,,,,0.000000,,,,,,1.080402,,,,,,-0.762080,,
0.550000,,,,,0.530456,,,,,,0.978358,,,,,,-0.732368,,,,,,0.224237,,,,,,-0.400468,,,,,,0.324489,,,,,,0.000000,,,,,,1.096121,,,,,,-0.760037,,
0.575000,,,,,0.328398,,,,,,0.771381,,,,,,-0.433304,,,,,,-0.243601,,,,,,-0.039998,,,,,,-0.417170,,,,,,0.000000,,,,,,0.830262,,,,,,-0.618265,,
0.600000,,,,,0.122474,,,,,,0.522688,,,,,,-0.163981,,,,,,-0.650174,,,,,,0.338056,,,,,,-0.673545,,,,,,0.000000,,,,,,0.572568,,,,,,-0.425351,,
0.650000,,,,,-0.057453,,,,,,0.306166,,,,,,0.183585,,,,,,-1.042824,,,,,,0.663358,,,,,,-0.920765,,,,,,0.000000,,,,,,0.308190,,,,,,-0.396887,,
0.675000,,,,,-0.210367,,,,,,0.102601,,,,,,0.554917,,,,,,-1.009407,,,,,,0.830405,,,,,,-0.801733,,,,,,0.000000,,,,,,0.043735,,,,,,-0.408504,,
0.700000,,,,,-0.398621,,,,,,-0.157456,,,,,,0.850035,,,,,,-1.393703,,,,,,1.041412,,,,,,-1.094734,,,,,,0.000000,,,,,,-0.213169,,,,,,-0.175703,,
0.725000,,,,,-0.570696,,,,,,-0.410555,,,,,,1.143607,,,,,,-1.766859,,,,,,1.296378,,,,,,-1.415204,,,,,,0.000000,,,,,,-0.470624,,,,,,0.052602,,
0.750000,,,,,-0.820802,,,,,,-0.748181,,,,,,1.743637,,,,,,-2.415706,,,,,,1.968963,,,,,,-2.116804,,,,,,0.000000,,,,,,-0.982508,,,,,,0.365094,,
0.775000,,,,,-0.852143,,,,,,-0.829012,,,,,,1.553229,,,,,,-2.440769,,,,,,1.964567,,,,,,-2.248425,,,,,,0.000000,,,,,,-1.288797,,,,,,0.640757,,
0.800000,,,,,-0.887887,,,,,,-0.903052,,,,,,1.320556,,,,,,-2.000778,,,,,,1.656848,,,,,,-1.799767,,,,,,0.000000,,,,,,-1.281983,,,,,,0.785357,,
0.825000,,,,,-0.936875,,,,,,-0.939412,,,,,,1.101139,,,,,,-1.566357,,,,,,1.533761,,,,,,-1.433516,,,,,,0.000000,,,,,,-1.282798,,,,,,0.912751,,
0.850000,,,,,-0.987998,,,,,,-1.009671,,,,,,0.846540,,,,,,-1.151430,,,,,,1.305170,,,,,,-1.048953,,,,,,0.000000,,,,,,-1.276855,,,,,,1.155436,,
0.900000,,,,,-1.050599,,,,,,-1.095451,,,,,,0.582545,,,,,,-1.168138,,,,,,1.094164,,,,,,-1.030640,,,,,,0.000000,,,,,,-1.270425,,,,,,1.405981,,
0.925000,,,,,-1.099209,,,,,,-1.122287,,,,,,0.399000,,,,,,-0.755995,,,,,,0.918324,,,,,,-0.636920,,,,,,0.000000,,,,,,-1.271776,,,,,,1.424473,,
0.950000,,,,,-1.163557,,,,,,-1.153709,,,,,,0.216994,,,,,,-0.343852,,,,,,0.777653,,,,,,-0.243200,,,,,,0.000000,,,,,,-1.273224,,,,,,1.459883,,
0.975000,,,,,-1.234042,,,,,,-1.214371,,,,,,-0.028690,,,,,,0.051583,,,,,,0.777653,,,,,,0.196301,,,,,,0.000000,,,,,,-1.268766,,,,,,1.718185,,
1.000000,,,,,-1.330318,,,,,,-1.273157,,,,,,-0.348460,,,,,,0.823655,,,,,,0.604012,,,,,,1.097050,,,,,,0.000000,,,,,,-1.268870,,,,,,1.875163,,
0.000000,,,,,,-0.999251,,,,,,-1.044356,,,,,,-0.052017,,,,,,0.174641,,,,,,-0.283737,,,,,,0.929670,,,,,,0.000000,,,,,,-1.001550,,,,,,1.472980,
0.023810,,,,,,-0.988241,,,,,,-1.009992,,,,,,0.021030,,,,,,0.177052,,,,,,-0.283737,,,,,,0.941259,,,,,,0.000000,,,,,,-1.007633,,,,,,1.271571,
0.047619,,,,,,-0.947564,,,,,,-0.957748,,,,,,0.129243,,,,,,0.630286,,,,,,-1.305095,,,,,,1.149864,,,,,,0.000000,,,,,,-0.716940,,,,,,0.931721,
0.071429,,,,,,-0.941692,,,,,,-0.965582,,,,,,0.119105,,,,,,1.052180,,,,,,-1.753729,,,,,,1.230988,,,,,,0.000000,,,,,,-0.715819,,,,,,0.955513,
0.095238,,,,,,-0.919044,,,,,,-0.958262,,,,,,0.197944,,,,,,1.165789,,,,,,-1.967307,,,,,,1.284588,,,,,,0.000000,,,,,,-0.679705,,,,,,0.761193,
0.119048,,,,,,-0.906734,,,,,,-0.970628,,,,,,0.184383,,,,,,1.057001,,,,,,-1.772820,,,,,,1.242577,,,,,,0.000000,,,,,,-0.714861,,,,,,0.782064,
0.142857,,,,,,-0.631073,,,,,,-0.702203,,,,,,0.013112,,,,,,1.175131,,,,,,-1.667820,,,,,,0.802189,,,,,,0.000000,,,,,,-0.440814,,,,,,0.472180,
0.166667,,,,,,-0.358279,,,,,,-0.429711,,,,,,-0.151465,,,,,,1.288440,,,,,,-1.562821,,,,,,0.350211,,,,,,0.000000,,,,,,-0.167932,,,,,,0.119440,
0.190476,,,,,,-0.091396,,,,,,-0.174858,,,,,,-0.355925,,,,,,1.399338,,,,,,-1.476912,,,,,,-0.101767,,,,,,0.000000,,,,,,0.108120,,,,,,-0.115608,
0.238095,,,,,,0.147691,,,,,,0.055741,,,,,,-0.617524,,,,,,1.498181,,,,,,-1.524639,,,,,,-0.565335,,,,,,0.000000,,,,,,0.387714,,,,,,-0.187281,
0.261905,,,,,,0.374967,,,,,,0.266926,,,,,,-0.902001,,,,,,1.138969,,,,,,-0.570099,,,,,,-1.225918,,,,,,0.000000,,,,,,0.370536,,,,,,-0.191504,
0.285714,,,,,,0.646106,,,,,,0.540370,,,,,,-1.082619,,,,,,0.808687,,,,,,-0.207374,,,,,,-1.759020,,,,,,0.000000,,,,,,0.644084,,,,,,-0.454205,
0.309524,,,,,,0.896584,,,,,,0.811044,,,,,,-1.298114,,,,,,0.825563,,,,,,0.002625,,,,,,-1.747431,,,,,,0.000000,,,,,,0.917548,,,,,,-0.658372,
0.333333,,,,,,1.318054,,,,,,1.373663,,,,,,-1.639085,,,,,,0.899997,,,,,,0.481088,,,,,,-2.079171,,,,,,0.000000,,,,,,1.465362,,,,,,-1.098500,
0.357143,,,,,,1.364390,,,,,,1.375364,,,,,,-1.618815,,,,,,0.958158,,,,,,0.508531,,,,,,-2.141463,,,,,,0.000000,,,,,,1.464324,,,,,,-1.165679,
0.380952,,,,,,1.348370,,,,,,1.394938,,,,,,-1.469698,,,,,,0.803865,,,,,,0.260351,,,,,,-1.782199,,,,,,0.000000,,,,,,1.464613,,,,,,-1.112528,
0.404762,,,,,,1.338168,,,,,,1.409193,,,,,,-1.313599,,,,,,0.637519,,,,,,0.078988,,,,,,-1.376577,,,,,,0.000000,,,,,,1.464923,,,,,,-1.135142,
0.428571,,,,,,1.348625,,,,,,1.424617,,,,,,-1.166580,,,,,,0.478405,,,,,,0.012170,,,,,,-0.924599,,,,,,0.000000,,,,,,1.464967,,,,,,-1.151665,
0.476190,,,,,,1.349811,,,,,,1.432202,,,,,,-1.006428,,,,,,0.324112,,,,,,-0.064193,,,,,,-0.461032,,,,,,0.000000,,,,,,1.465898,,,,,,-1.156689,
0.500000,,,,,,1.353832,,,,,,1.432924,,,,,,-0.835499,,,,,,0.177052,,,,,,-0.169192,,,,,,-0.009054,,,,,,0.000000,,,,,,1.466271,,,,,,-1.259370,
0.522727,,,,,,1.333202,,,,,,1.394972,,,,,,-0.650190,,,,,,0.109549,,,,,,-0.551008,,,,,,-0.043822,,,,,,0.000000,,,,,,1.474846,,,,,,-1.404696,
0.545455,,,,,,1.419248,,,,,,1.366597,,,,,,-0.539152,,,,,,-0.358150,,,,,,-0.512827,,,,,,-0.658048,,,,,,0.000000,,,,,,1.474735,,,,,,-1.529886,
0.568182,,,,,,1.272928,,,,,,1.273779,,,,,,-0.218621,,,,,,-1.188376,,,,,,0.105238,,,,,,-0.397292,,,,,,0.000000,,,,,,1.162456,,,,,,-1.499371,
0.590909,,,,,,1.032054,,,,,,1.016845,,,,,,-0.356880,,,,,,-1.081396,,,,,,-0.035557,,,,,,-0.333551,,,,,,0.000000,,,,,,0.640991,,,,,,-1.248120,
0.613636,,,,,,0.750172,,,,,,0.730190,,,,,,-0.096296,,,,,,-1.223634,,,,,,0.508531,,,,,,-0.090178,,,,,,0.000000,,,,,,0.365706,,,,,,-1.048264,
0.636364,,,,,,0.526761,,,,,,0.461473,,,,,,-0.123832,,,,,,-1.373105,,,,,,0.642167,,,,,,-0.032232,,,,,,0.000000,,,,,,0.090759,,,,,,-0.835340,
0.659091,,,,,,0.249619,,,,,,0.205306,,,,,,-0.043192,,,,,,-1.520165,,,,,,0.794893,,,,,,-0.020643,,,,,,0.000000,,,,,,-0.184401,,,,,,-0.482168,
0.704545,,,,,,-0.014949,,,,,,-0.047347,,,,,,0.054289,,,,,,-1.669636,,,,,,1.071710,,,,,,-0.067000,,,,,,0.000000,,,,,,-0.459358,,,,,,-0.216868,
0.727273,,,,,,-0.214976,,,,,,-0.251647,,,,,,0.328249,,,,,,-1.811874,,,,,,1.539435,,,,,,-0.194481,,,,,,0.000000,,,,,,-0.741840,,,,,,0.103594,
0.750000,,,,,,-0.495951,,,,,,-0.494391,,,,,,0.626122,,,,,,-1.500878,,,,,,1.491708,,,,,,0.245908,,,,,,0.000000,,,,,,-1.016145,,,,,,0.425139,
0.772727,,,,,,-0.736396,,,,,,-0.686917,,,,,,0.961596,,,,,,-1.177828,,,,,,0.976256,,,,,,0.616762,,,,,,0.000000,,,,,,-1.010879,,,,,,0.698954,
0.795455,,,,,,-1.070790,,,,,,-0.973721,,,,,,1.664609,,,,,,-1.337545,,,,,,1.630116,,,,,,0.776113,,,,,,0.000000,,,,,,-1.004937,,,,,,0.941823,
0.818182,,,,,,-1.112764,,,,,,-0.999297,,,,,,1.763078,,,,,,-0.970498,,,,,,0.976256,,,,,,0.605173,,,,,,0.000000,,,,,,-1.005091,,,,,,1.035244,
0.840909,,,,,,-1.143071,,,,,,-1.005905,,,,,,1.834384,,,,,,-0.763168,,,,,,1.052619,,,,,,0.547227,,,,,,0.000000,,,,,,-1.004044,,,,,,1.107107,
0.863636,,,,,,-1.130875,,,,,,-1.015857,,,,,,1.769864,,,,,,-0.555837,,,,,,1.081255,,,,,,0.558816,,,,,,0.000000,,,,,,-1.003976,,,,,,1.106028,
0.886364,,,,,,-1.128455,,,,,,-1.030484,,,,,,1.710874,,,,,,-0.350917,,,,,,1.023983,,,,,,0.639940,,,,,,0.000000,,,,,,-1.003756,,,,,,1.145511,
0.931818,,,,,,-1.150662,,,,,,-1.054812,,,,,,1.464633,,,,,,-0.160463,,,,,,0.785348,,,,,,0.825367,,,,,,0.000000,,,,,,-1.003833,,,,,,1.184345,
0.954545,,,,,,-1.106687,,,,,,-1.070977,,,,,,1.225441,,,,,,-0.001349,,,,,,0.422623,,,,,,1.033972,,,,,,0.000000,,,,,,-1.003919,,,,,,1.126029,
0.977273,,,,,,-1.028956,,,,,,-1.064267,,,,,,0.898073,,,,,,0.095084,,,,,,0.193533,,,,,,1.115097,,,,,,0.000000,,,,,,-1.003696,,,,,,1.134963,
1.000000,,,,,,-0.952776,,,,,,-1.057182,,,,,,0.571503,,,,,,0.169820,,,,,,0.069443,,,,,,1.115097,,,,,,0.000000,,,,,,-1.002724,,,,,,1.175856,
