Relative Time (to start of segment),aclx 1,aclx 2,aclx 3,aclx 4,aclx 5,aclx 6,acly 1,acly 2,acly 3,acly 4,acly 5,acly 6,aclz 1,aclz 2,aclz 3,aclz 4,aclz 5,aclz 6,gyrx 1,gyrx 2,gyrx 3,gyrx 4,gyrx 5,gyrx 6,gyry 1,gyry 2,gyry 3,gyry 4,gyry 5,gyry 6,gyrz 1,gyrz 2,gyrz 3,gyrz 4,gyrz 5,gyrz 6,magr 1,magr 2,magr 3,magr 4,magr 5,magr 6,magphi 1,magphi 2,magphi 3,magphi 4,magphi 5,magphi 6,magtheta 1,magtheta 2,magtheta 3,magtheta 4,magtheta 5,magtheta 6,
0.000000,-0.640670,,,,,,-0.789707,,,,,,-0.140449,,,,,,0.012023,,,,,,0.036874,,,,,,0.133168,,,,,,0.000000,,,,,,-0.735219,,,,,,0.684720,,,,,,
0.100000,-0.525291,,,,,,-0.716970,,,,,,0.193805,,,,,,0.308079,,,,,,-0.516636,,,,,,0.449270,,,,,,0.000000,,,,,,-0.739446,,,,,,0.446055,,,,,,
0.200000,-0.424479,,,,,,-0.671173,,,,,,0.544895,,,,,,0.614434,,,,,,-1.070145,,,,,,0.748736,,,,,,0.000000,,,,,,-0.742027,,,,,,0.214792,,,,,,
0.300000,-0.256311,,,,,,-0.551210,,,,,,0.992183,,,,,,0.928512,,,,,,-1.595123,,,,,,1.031564,,,,,,0.000000,,,,,,-0.453746,,,,,,-0.253937,,,,,,
0.500000,-0.125335,,,,,,-0.486372,,,,,,1.387475,,,,,,1.250312,,,,,,-2.051626,,,,,,1.281118,,,,,,0.000000,,,,,,-0.458258,,,,,,-0.480744,,,,,,
0.600000,0.007811,,,,,,-0.410253,,,,,,1.789369,,,,,,1.574688,,,,,,-2.485303,,,,,,1.522354,,,,,,0.000000,,,,,,-0.464467,,,,,,-0.739305,,,,,,
0.700000,0.236908,,,,,,-0.230842,,,,,,2.127792,,,,,,1.906786,,,,,,-2.873330,,,,,,1.730316,,,,,,0.000000,,,,,,-0.186051,,,,,,-1.000970,,,,,,
0.800000,0.367000,,,,,,-0.151381,,,,,,2.511426,,,,,,2.195120,,,,,,-3.438252,,,,,,2.054737,,,,,,0.000000,,,,,,-0.192518,,,,,,-1.280914,,,,,,
0.900000,0.658206,,,,,,0.019194,,,,,,3.293385,,,,,,2.798818,,,,,,-4.499621,,,,,,2.659907,,,,,,0.000000,,,,,,-0.132038,,,,,,-1.910117,,,,,,
1.000000,0.833828,,,,,,0.234496,,,,,,3.197193,,,,,,2.189971,,,,,,-3.249945,,,,,,1.979871,,,,,,0.000000,,,,,,0.359663,,,,,,-1.920706,,,,,,
1.100000,0.985581,,,,,,0.471362,,,,,,2.757035,,,,,,1.863021,,,,,,-2.416828,,,,,,1.480762,,,,,,0.000000,,,,,,0.641757,,,,,,-1.929259,,,,,,
1.200000,1.033485,,,,,,0.649297,,,,,,2.218584,,,,,,1.556667,,,,,,-1.595123,,,,,,1.156341,,,,,,0.000000,,,,,,0.631826,,,,,,-1.647958,,,,,,
1.300000,1.121640,,,,,,0.871800,,,,,,1.730347,,,,,,1.247738,,,,,,-0.881838,,,,,,0.906787,,,,,,0.000000,,,,,,0.914801,,,,,,-1.601871,,,,,,
1.500000,1.250698,,,,,,1.110686,,,,,,1.288794,,,,,,0.902767,,,,,,-0.140021,,,,,,0.474226,,,,,,0.000000,,,,,,1.198343,,,,,,-1.551692,,,,,,
1.600000,1.155581,,,,,,1.096535,,,,,,0.841748,,,,,,0.609285,,,,,,0.407782,,,,,,0.282901,,,,,,0.000000,,,,,,0.919576,,,,,,-1.225756,,,,,,
1.700000,1.310625,,,,,,1.323465,,,,,,0.404485,,,,,,0.367291,,,,,,1.121068,,,,,,-0.024883,,,,,,0.000000,,,,,,1.204463,,,,,,-1.108764,,,,,,
1.800000,1.274278,,,,,,1.397480,,,,,,-0.085534,,,,,,0.048064,,,,,,1.988423,,,,,,-0.557266,,,,,,0.000000,,,,,,1.209271,,,,,,-0.852662,,,,,,
1.900000,1.264951,,,,,,1.454156,,,,,,-0.912827,,,,,,0.021355,,,,,,2.350058,,,,,,-0.793303,,,,,,0.000000,,,,,,0.825413,,,,,,-0.558065,,,,,,
2.000000,1.175424,,,,,,1.267373,,,,,,-1.097099,,,,,,-0.013722,,,,,,2.382156,,,,,,-0.923279,,,,,,0.000000,,,,,,0.371417,,,,,,-0.160751,,,,,,
2.100000,0.949173,,,,,,0.982180,,,,,,-0.974934,,,,,,-0.024019,,,,,,2.085430,,,,,,-0.898324,,,,,,0.000000,,,,,,0.091536,,,,,,-0.013446,,,,,,
2.200000,0.703837,,,,,,0.706207,,,,,,-0.901273,,,,,,-0.036891,,,,,,1.840059,,,,,,-0.914961,,,,,,0.000000,,,,,,-0.188194,,,,,,0.214349,,,,,,
2.300000,0.415352,,,,,,0.404850,,,,,,-0.865988,,,,,,-0.016296,,,,,,1.543333,,,,,,-0.740273,,,,,,0.000000,,,,,,-0.467178,,,,,,0.458694,,,,,,
2.500000,0.259671,,,,,,0.248330,,,,,,-0.764756,,,,,,-0.052338,,,,,,1.389263,,,,,,-0.748591,,,,,,0.000000,,,,,,-0.467590,,,,,,0.432791,,,,,,
2.600000,-0.045816,,,,,,-0.048641,,,,,,-0.727362,,,,,,-0.098677,,,,,,1.263725,,,,,,-0.765228,,,,,,0.000000,,,,,,-0.747156,,,,,,0.616974,,,,,,
2.700000,-0.169109,,,,,,-0.197996,,,,,,-0.631835,,,,,,-0.078082,,,,,,0.961292,,,,,,-0.590540,,,,,,0.000000,,,,,,-0.745776,,,,,,0.708907,,,,,,
2.800000,-0.394104,,,,,,-0.375143,,,,,,-0.495404,,,,,,-0.054912,,,,,,0.670271,,,,,,-0.407533,,,,,,0.000000,,,,,,-0.744074,,,,,,0.788087,,,,,,
0.000000,,-0.819736,,,,,,-0.712143,,,,,,-0.113138,,,,,,-0.010504,,,,,,0.013335,,,,,,0.114451,,,,,,0.000000,,,,,,-0.745070,,,,,,0.819443,,,,,
0.100000,,-0.834249,,,,,,-0.686027,,,,,,0.589934,,,,,,-0.011147,,,,,,0.002636,,,,,,0.133168,,,,,,0.000000,,,,,,-0.749156,,,,,,0.671399,,,,,
0.200000,,-0.705060,,,,,,-0.611883,,,,,,0.931786,,,,,,0.341547,,,,,,-0.431041,,,,,,0.765373,,,,,,0.000000,,,,,,-0.755295,,,,,,0.382012,,,,,
0.300000,,-0.554608,,,,,,-0.528133,,,,,,1.311918,,,,,,0.691666,,,,,,-0.876131,,,,,,1.389259,,,,,,0.000000,,,,,,-0.457235,,,,,,0.041930,,,,,
0.400000,,-0.335595,,,,,,-0.381580,,,,,,1.706737,,,,,,1.041785,,,,,,-1.304103,,,,,,2.013145,,,,,,0.000000,,,,,,-0.171105,,,,,,-0.329403,,,,,
0.600000,,-0.151528,,,,,,-0.283558,,,,,,2.115817,,,,,,1.397054,,,,,,-1.692130,,,,,,2.645349,,,,,,0.000000,,,,,,0.125262,,,,,,-0.675037,,,,,
0.700000,,0.087841,,,,,,-0.114823,,,,,,2.407999,,,,,,1.760045,,,,,,-2.040213,,,,,,3.269235,,,,,,0.000000,,,,,,0.406162,,,,,,-1.066078,,,,,
0.800000,,0.285065,,,,,,-0.005238,,,,,,2.752545,,,,,,1.886191,,,,,,-2.108689,,,,,,2.645349,,,,,,0.000000,,,,,,0.701973,,,,,,-1.405976,,,,,
0.900000,,0.570402,,,,,,0.197832,,,,,,3.033086,,,,,,2.241459,,,,,,-2.548072,,,,,,3.285872,,,,,,0.000000,,,,,,0.979804,,,,,,-1.681438,,,,,
1.000000,,1.065131,,,,,,0.516275,,,,,,2.851576,,,,,,2.946525,,,,,,-3.170770,,,,,,4.241458,,,,,,0.000000,,,,,,1.513799,,,,,,-2.094647,,,,,
1.100000,,1.258680,,,,,,0.741224,,,,,,2.465876,,,,,,3.011207,,,,,,-2.987456,,,,,,4.051173,,,,,,0.000000,,,,,,1.824973,,,,,,-1.823619,,,,,
1.200000,,1.371308,,,,,,0.967829,,,,,,1.927551,,,,,,2.697129,,,,,,-2.376884,,,,,,3.319146,,,,,,0.000000,,,,,,1.805372,,,,,,-1.600292,,,,,
1.300000,,1.444952,,,,,,1.132041,,,,,,1.403552,,,,,,2.352159,,,,,,-2.000269,,,,,,2.736853,,,,,,0.000000,,,,,,1.798513,,,,,,-1.353157,,,,,
1.400000,,1.577893,,,,,,1.343019,,,,,,0.773727,,,,,,1.991742,,,,,,-1.543767,,,,,,2.104648,,,,,,0.000000,,,,,,1.780644,,,,,,-1.182741,,,,,
1.600000,,1.621663,,,,,,1.483148,,,,,,0.298422,,,,,,1.657069,,,,,,-0.984551,,,,,,1.364303,,,,,,0.000000,,,,,,1.779022,,,,,,-0.931935,,,,,
1.700000,,1.745830,,,,,,1.683905,,,,,,-0.279082,,,,,,1.510328,,,,,,-0.950313,,,,,,1.971552,,,,,,0.000000,,,,,,1.761828,,,,,,-0.756790,,,,,
1.800000,,1.779142,,,,,,1.800438,,,,,,-0.720474,,,,,,1.180803,,,,,,-0.276972,,,,,,1.214571,,,,,,0.000000,,,,,,1.761771,,,,,,-0.731307,,,,,
1.900000,,1.802914,,,,,,1.909429,,,,,,-1.102736,,,,,,0.820386,,,,,,0.128174,,,,,,0.615640,,,,,,0.000000,,,,,,1.761608,,,,,,-0.678290,,,,,
2.000000,,1.818559,,,,,,2.089891,,,,,,-1.723391,,,,,,0.134307,,,,,,1.001949,,,,,,-0.437688,,,,,,0.000000,,,,,,1.762980,,,,,,-0.619966,,,,,
2.100000,,1.810689,,,,,,2.082723,,,,,,-1.623022,,,,,,-0.090954,,,,,,1.560451,,,,,,0.449270,,,,,,0.000000,,,,,,1.761733,,,,,,-0.721067,,,,,
2.200000,,1.792162,,,,,,2.083579,,,,,,-1.691522,,,,,,-0.163037,,,,,,1.948479,,,,,,0.565729,,,,,,0.000000,,,,,,1.761764,,,,,,-0.748256,,,,,
2.300000,,1.732559,,,,,,2.088500,,,,,,-1.693670,,,,,,-0.237695,,,,,,2.205261,,,,,,0.690506,,,,,,0.000000,,,,,,1.761463,,,,,,-0.679280,,,,,
2.400000,,1.666709,,,,,,2.052697,,,,,,-1.731711,,,,,,-0.363841,,,,,,2.325093,,,,,,0.923424,,,,,,0.000000,,,,,,1.768058,,,,,,-0.696555,,,,,
2.600000,,1.616894,,,,,,2.034877,,,,,,-1.716151,,,,,,-0.466817,,,,,,2.713121,,,,,,1.098112,,,,,,0.000000,,,,,,1.767747,,,,,,-0.628113,,,,,
2.700000,,1.517712,,,,,,1.919960,,,,,,-1.640361,,,,,,-0.623856,,,,,,2.844365,,,,,,1.389259,,,,,,0.000000,,,,,,1.783915,,,,,,-0.640098,,,,,
2.800000,,1.517419,,,,,,1.878225,,,,,,-1.606126,,,,,,-0.778321,,,,,,3.095442,,,,,,1.647132,,,,,,0.000000,,,,,,1.784632,,,,,,-0.585100,,,,,
2.900000,,1.558207,,,,,,1.851603,,,,,,-1.598201,,,,,,-1.118142,,,,,,3.238099,,,,,,1.422533,,,,,,0.000000,,,,,,1.785503,,,,,,-0.594902,,,,,
3.000000,,1.561793,,,,,,1.820818,,,,,,-1.706904,,,,,,-1.224015,,,,,,3.139665,,,,,,0.937981,,,,,,0.000000,,,,,,1.790877,,,,,,-0.561594,,,,,
3.100000,,1.342923,,,,,,1.527844,,,,,,-1.668745,,,,,,-1.040910,,,,,,2.034073,,,,,,1.114749,,,,,,0.000000,,,,,,1.230533,,,,,,-0.197884,,,,,
3.200000,,1.079884,,,,,,1.222245,,,,,,-1.394051,,,,,,-0.979124,,,,,,1.685990,,,,,,1.031564,,,,,,0.000000,,,,,,0.951456,,,,,,-0.085759,,,,,
3.300000,,0.859373,,,,,,0.956563,,,,,,-1.149058,,,,,,-0.901892,,,,,,1.315081,,,,,,0.948379,,,,,,0.000000,,,,,,0.666196,,,,,,0.055850,,,,,
3.400000,,0.558922,,,,,,0.670626,,,,,,-0.909690,,,,,,-0.796341,,,,,,0.932760,,,,,,0.856876,,,,,,0.000000,,,,,,0.387238,,,,,,0.182930,,,,,
3.600000,,0.334276,,,,,,0.475932,,,,,,-0.735962,,,,,,-0.685642,,,,,,0.510495,,,,,,0.765373,,,,,,0.000000,,,,,,0.092435,,,,,,0.353462,,,,,
3.700000,,0.018041,,,,,,0.203407,,,,,,-0.557305,,,,,,-0.569794,,,,,,0.008342,,,,,,0.707143,,,,,,0.000000,,,,,,-0.187255,,,,,,0.491324,,,,,
3.800000,,-0.284791,,,,,,-0.075395,,,,,,-0.373768,,,,,,-0.296906,,,,,,-0.425335,,,,,,1.156341,,,,,,0.000000,,,,,,-0.466334,,,,,,0.603757,,,,,
3.900000,,-0.567061,,,,,,-0.373118,,,,,,-0.161735,,,,,,-0.152740,,,,,,-0.801950,,,,,,0.973335,,,,,,0.000000,,,,,,-0.746153,,,,,,0.740113,,,,,
4.000000,,-0.893428,,,,,,-0.669577,,,,,,0.207922,,,,,,-0.184276,,,,,,-0.583684,,,,,,0.778890,,,,,,0.000000,,,,,,-0.746549,,,,,,0.667962,,,,,
4.100000,,-0.860461,,,,,,-0.677120,,,,,,0.099843,,,,,,-0.209377,,,,,,-0.756299,,,,,,0.973335,,,,,,0.000000,,,,,,-0.746037,,,,,,0.671281,,,,,
4.200000,,-0.842500,,,,,,-0.683844,,,,,,0.036725,,,,,,-0.183632,,,,,,-0.676411,,,,,,0.948379,,,,,,0.000000,,,,,,-0.745521,,,,,,0.690912,,,,,
4.300000,,-0.812037,,,,,,-0.689442,,,,,,0.019176,,,,,,-0.160463,,,,,,-0.625055,,,,,,0.873513,,,,,,0.000000,,,,,,-0.745081,,,,,,0.670399,,,,,
4.400000,,-0.797428,,,,,,-0.694017,,,,,,-0.047368,,,,,,-0.139868,,,,,,-0.567992,,,,,,0.798646,,,,,,0.000000,,,,,,-0.745110,,,,,,0.737870,,,,,
4.600000,,-0.758843,,,,,,-0.698505,,,,,,-0.049027,,,,,,-0.111549,,,,,,-0.408216,,,,,,0.690506,,,,,,0.000000,,,,,,-0.744445,,,,,,0.682946,,,,,
4.700000,,-0.746158,,,,,,-0.698108,,,,,,-0.083980,,,,,,-0.083231,,,,,,-0.225615,,,,,,0.565729,,,,,,0.000000,,,,,,-0.744898,,,,,,0.703235,,,,,
4.800000,,-0.738262,,,,,,-0.702859,,,,,,-0.102521,,,,,,-0.078082,,,,,,-0.202790,,,,,,0.615640,,,,,,0.000000,,,,,,-0.744418,,,,,,0.722349,,,,,
4.900000,,-0.732321,,,,,,-0.700852,,,,,,-0.092217,,,,,,-0.042040,,,,,,-0.025895,,,,,,0.474226,,,,,,0.000000,,,,,,-0.745028,,,,,,0.702800,,,,,
0.000000,,,-0.683797,,,,,,-0.724434,,,,,,0.006241,,,,,,-0.018870,,,,,,0.042580,,,,,,0.282901,,,,,,0.000000,,,,,,-0.741979,,,,,,0.591421,,,,
0.200000,,,-0.621928,,,,,,-0.712201,,,,,,0.179768,,,,,,-0.018870,,,,,,0.048286,,,,,,0.282901,,,,,,0.000000,,,,,,-0.741484,,,,,,0.631973,,,,
0.300000,,,-0.684091,,,,,,-0.719288,,,,,,0.614747,,,,,,-0.018870,,,,,,0.053993,,,,,,0.282901,,,,,,0.000000,,,,,,-0.742412,,,,,,0.629294,,,,
0.400000,,,-0.681929,,,,,,-0.705707,,,,,,0.965800,,,,,,-0.018870,,,,,,0.059699,,,,,,0.274582,,,,,,0.000000,,,,,,-0.742601,,,,,,0.614232,,,,
0.500000,,,-0.646627,,,,,,-0.615890,,,,,,1.239591,,,,,,-0.018870,,,,,,0.059699,,,,,,0.266264,,,,,,0.000000,,,,,,-0.445859,,,,,,0.432269,,,,
0.600000,,,-0.652484,,,,,,-0.499763,,,,,,1.325700,,,,,,-0.022088,,,,,,0.058272,,,,,,0.264184,,,,,,0.000000,,,,,,-0.409413,,,,,,0.435337,,,,
0.700000,,,-0.569605,,,,,,-0.320730,,,,,,0.809905,,,,,,-0.018870,,,,,,0.036874,,,,,,0.241308,,,,,,0.000000,,,,,,-0.447116,,,,,,0.470898,,,,
0.800000,,,-0.323088,,,,,,-0.072602,,,,,,0.639277,,,,,,0.197380,,,,,,-0.111489,,,,,,-0.066476,,,,,,0.000000,,,,,,-0.166849,,,,,,0.250853,,,,
0.900000,,,-0.078329,,,,,,0.163814,,,,,,0.492478,,,,,,0.328675,,,,,,-0.225615,,,,,,-0.615495,,,,,,0.000000,,,,,,0.115712,,,,,,-0.035449,,,,
1.000000,,,0.113015,,,,,,0.402251,,,,,,0.215520,,,,,,0.593839,,,,,,-0.505223,,,,,,-0.740273,,,,,,0.000000,,,,,,0.397425,,,,,,-0.385754,,,,
1.200000,,,0.429112,,,,,,0.682350,,,,,,-0.384419,,,,,,0.856428,,,,,,-0.756299,,,,,,-0.865050,,,,,,0.000000,,,,,,0.676881,,,,,,-0.582264,,,,
1.300000,,,0.689482,,,,,,0.923019,,,,,,-0.891029,,,,,,1.106146,,,,,,-1.018788,,,,,,-1.073012,,,,,,0.000000,,,,,,0.958654,,,,,,-0.837383,,,,
1.400000,,,0.922193,,,,,,1.090232,,,,,,-1.364376,,,,,,1.355863,,,,,,-1.275571,,,,,,-1.305929,,,,,,0.000000,,,,,,0.942918,,,,,,-0.885104,,,,
1.500000,,,1.211054,,,,,,1.264358,,,,,,-1.551032,,,,,,1.600432,,,,,,-1.503823,,,,,,-1.547165,,,,,,0.000000,,,,,,1.223779,,,,,,-1.091699,,,,
1.600000,,,1.626793,,,,,,1.607427,,,,,,-1.402662,,,,,,2.063182,,,,,,-1.874018,,,,,,-2.047314,,,,,,0.000000,,,,,,1.786685,,,,,,-1.637053,,,,
1.700000,,,1.583101,,,,,,1.695527,,,,,,-1.410924,,,,,,2.071548,,,,,,-1.811962,,,,,,-2.062911,,,,,,0.000000,,,,,,1.786124,,,,,,-1.462232,,,,
1.800000,,,1.584162,,,,,,1.763244,,,,,,-1.458698,,,,,,1.937679,,,,,,-1.794843,,,,,,-1.655306,,,,,,0.000000,,,,,,1.783248,,,,,,-1.294795,,,,
1.900000,,,1.596269,,,,,,1.812979,,,,,,-1.509354,,,,,,1.669941,,,,,,-1.640773,,,,,,-1.480618,,,,,,0.000000,,,,,,1.781087,,,,,,-1.158814,,,,
2.000000,,,1.600278,,,,,,1.848136,,,,,,-1.501478,,,,,,1.371310,,,,,,-1.458172,,,,,,-1.380796,,,,,,0.000000,,,,,,1.781410,,,,,,-1.105957,,,,
2.200000,,,1.591536,,,,,,1.895596,,,,,,-1.477886,,,,,,1.077827,,,,,,-1.252746,,,,,,-1.181152,,,,,,0.000000,,,,,,1.779725,,,,,,-0.977662,,,,
2.300000,,,1.580986,,,,,,1.936907,,,,,,-1.344441,,,,,,0.781770,,,,,,-1.041614,,,,,,-0.964872,,,,,,0.000000,,,,,,1.778248,,,,,,-0.975394,,,,
2.400000,,,1.528590,,,,,,1.974656,,,,,,-1.178754,,,,,,0.496011,,,,,,-0.876131,,,,,,-0.748591,,,,,,0.000000,,,,,,1.778052,,,,,,-0.904767,,,,
2.500000,,,1.522292,,,,,,1.988253,,,,,,-1.182871,,,,,,0.223124,,,,,,-0.773418,,,,,,-0.523992,,,,,,0.000000,,,,,,1.776963,,,,,,-0.767851,,,,
2.600000,,,1.573782,,,,,,1.997701,,,,,,-1.143485,,,,,,-0.297228,,,,,,-0.660719,,,,,,-0.016565,,,,,,0.000000,,,,,,1.775308,,,,,,-0.877197,,,,
2.700000,,,1.575570,,,,,,2.000749,,,,,,-1.191058,,,,,,-0.286609,,,,,,-0.801950,,,,,,-0.066476,,,,,,0.000000,,,,,,1.774890,,,,,,-0.888622,,,,
2.800000,,,1.521309,,,,,,1.958765,,,,,,-1.116674,,,,,,-0.613558,,,,,,-0.431041,,,,,,-0.299393,,,,,,0.000000,,,,,,1.777771,,,,,,-0.936449,,,,
2.900000,,,1.409880,,,,,,1.868501,,,,,,-0.976608,,,,,,-0.919913,,,,,,-0.128608,,,,,,-0.457444,,,,,,0.000000,,,,,,1.789558,,,,,,-0.999789,,,,
3.000000,,,1.355718,,,,,,1.699690,,,,,,-0.672367,,,,,,-1.233991,,,,,,0.173825,,,,,,-0.648769,,,,,,0.000000,,,,,,1.807286,,,,,,-1.114858,,,,
3.200000,,,1.139094,,,,,,1.468882,,,,,,-0.310682,,,,,,-1.427071,,,,,,0.402076,,,,,,-0.890005,,,,,,0.000000,,,,,,1.524205,,,,,,-1.045377,,,,
3.300000,,,1.087981,,,,,,1.263709,,,,,,-0.200850,,,,,,-1.550643,,,,,,0.733040,,,,,,-0.948235,,,,,,0.000000,,,,,,1.242734,,,,,,-1.045204,,,,
3.400000,,,1.000308,,,,,,1.063814,,,,,,-0.163102,,,,,,-1.849274,,,,,,1.166718,,,,,,-1.181152,,,,,,0.000000,,,,,,0.963885,,,,,,-0.995139,,,,
3.500000,,,0.915717,,,,,,1.010233,,,,,,0.023005,,,,,,-2.173649,,,,,,1.646046,,,,,,-1.555484,,,,,,0.000000,,,,,,0.966901,,,,,,-0.938348,,,,
3.600000,,,0.734550,,,,,,0.806353,,,,,,0.523878,,,,,,-2.796656,,,,,,2.529806,,,,,,-2.140897,,,,,,0.000000,,,,,,0.872269,,,,,,-1.039101,,,,
3.700000,,,0.556752,,,,,,0.598869,,,,,,0.709124,,,,,,-2.912504,,,,,,2.547638,,,,,,-2.603613,,,,,,0.000000,,,,,,0.411467,,,,,,-0.692854,,,,
3.800000,,,0.426282,,,,,,0.384757,,,,,,0.770347,,,,,,-2.582980,,,,,,2.325093,,,,,,-2.420606,,,,,,0.000000,,,,,,0.121174,,,,,,-0.504384,,,,
3.900000,,,0.233934,,,,,,0.250082,,,,,,0.622096,,,,,,-2.238009,,,,,,2.113961,,,,,,-2.229281,,,,,,0.000000,,,,,,-0.175756,,,,,,-0.264358,,,,
4.000000,,,0.186702,,,,,,0.186146,,,,,,0.336413,,,,,,-1.993441,,,,,,1.948479,,,,,,-1.946453,,,,,,0.000000,,,,,,-0.172536,,,,,,-0.107240,,,,
4.200000,,,0.010260,,,,,,0.089022,,,,,,0.305013,,,,,,-1.833828,,,,,,1.628927,,,,,,-1.838312,,,,,,0.000000,,,,,,-0.170463,,,,,,-0.005915,,,,
4.300000,,,-0.135448,,,,,,-0.010907,,,,,,0.334624,,,,,,-1.501729,,,,,,1.212368,,,,,,-1.572121,,,,,,0.000000,,,,,,-0.171856,,,,,,0.032823,,,,
4.400000,,,-0.303590,,,,,,-0.251864,,,,,,0.348616,,,,,,-1.154184,,,,,,0.892816,,,,,,-1.164515,,,,,,0.000000,,,,,,-0.454937,,,,,,0.206762,,,,
4.500000,,,-0.461296,,,,,,-0.490439,,,,,,0.262767,,,,,,-0.801490,,,,,,0.544733,,,,,,-0.715317,,,,,,0.000000,,,,,,-0.739981,,,,,,0.408708,,,,
0.000000,,,,-0.602521,,,,,,-0.714161,,,,,,0.119475,,,,,,0.037767,,,,,,0.213769,,,,,,0.191397,,,,,,0.000000,,,,,,-0.740451,,,,,,0.337695,,,
0.100000,,,,-0.534851,,,,,,-0.681735,,,,,,0.598629,,,,,,0.503734,,,,,,-0.373978,,,,,,0.399359,,,,,,0.000000,,,,,,-0.743228,,,,,,0.138519,,,
0.200000,,,,-0.474264,,,,,,-0.643003,,,,,,1.043505,,,,,,0.812663,,,,,,-0.830481,,,,,,0.590684,,,,,,0.000000,,,,,,-0.746928,,,,,,-0.041960,,,
0.300000,,,,-0.342919,,,,,,-0.525196,,,,,,1.508280,,,,,,1.149911,,,,,,-1.235627,,,,,,0.806965,,,,,,0.000000,,,,,,-0.459899,,,,,,-0.399260,,,
0.500000,,,,-0.285245,,,,,,-0.481552,,,,,,1.880596,,,,,,1.559241,,,,,,-1.657892,,,,,,1.089793,,,,,,0.000000,,,,,,-0.463087,,,,,,-0.515484,,,
0.600000,,,,-0.107449,,,,,,-0.321289,,,,,,2.261620,,,,,,1.772917,,,,,,-1.960325,,,,,,0.623958,,,,,,0.000000,,,,,,-0.183919,,,,,,-0.749001,,,
0.700000,,,,0.090140,,,,,,-0.149618,,,,,,2.643367,,,,,,1.924807,,,,,,-1.863318,,,,,,0.158123,,,,,,0.000000,,,,,,0.093522,,,,,,-1.004518,,,
0.800000,,,,0.150492,,,,,,-0.120547,,,,,,3.099272,,,,,,2.349584,,,,,,-2.336940,,,,,,0.424315,,,,,,0.000000,,,,,,0.090611,,,,,,-1.170250,,,
0.900000,,,,0.353823,,,,,,0.030850,,,,,,3.875374,,,,,,3.128986,,,,,,-3.234966,,,,,,0.741457,,,,,,0.000000,,,,,,0.188673,,,,,,-1.562181,,,
1.000000,,,,0.557259,,,,,,0.283904,,,,,,3.656555,,,,,,3.240329,,,,,,-3.432546,,,,,,0.890150,,,,,,0.000000,,,,,,0.646249,,,,,,-1.501477,,,
1.100000,,,,0.778124,,,,,,0.541873,,,,,,3.063156,,,,,,2.856743,,,,,,-3.061638,,,,,,0.482544,,,,,,0.000000,,,,,,0.929238,,,,,,-1.494464,,,
1.200000,,,,0.887016,,,,,,0.709339,,,,,,2.559150,,,,,,2.522070,,,,,,-2.627960,,,,,,0.158123,,,,,,0.000000,,,,,,0.921562,,,,,,-1.345453,,,
1.300000,,,,1.026271,,,,,,0.944797,,,,,,2.172080,,,,,,2.038081,,,,,,-2.296996,,,,,,-0.340986,,,,,,0.000000,,,,,,1.204597,,,,,,-1.367213,,,
1.500000,,,,1.056314,,,,,,1.059417,,,,,,1.847198,,,,,,1.754896,,,,,,-2.085863,,,,,,-0.124705,,,,,,0.000000,,,,,,1.205300,,,,,,-1.360765,,,
1.600000,,,,1.070989,,,,,,1.166224,,,,,,1.524407,,,,,,1.592709,,,,,,-2.194283,,,,,,0.274582,,,,,,0.000000,,,,,,1.206954,,,,,,-1.371723,,,
1.700000,,,,1.218968,,,,,,1.421564,,,,,,1.053983,,,,,,1.167931,,,,,,-1.709249,,,,,,-0.016565,,,,,,0.000000,,,,,,1.489956,,,,,,-1.315826,,,
1.800000,,,,1.373821,,,,,,1.646237,,,,,,0.663562,,,,,,0.745729,,,,,,-1.167152,,,,,,-0.241164,,,,,,0.000000,,,,,,1.775045,,,,,,-1.339757,,,
1.900000,,,,1.492047,,,,,,1.866893,,,,,,-0.090146,,,,,,-0.149522,,,,,,0.006916,,,,,,-0.699720,,,,,,0.000000,,,,,,1.776328,,,,,,-1.394649,,,
2.000000,,,,1.536017,,,,,,1.868428,,,,,,-0.160613,,,,,,-0.134719,,,,,,0.213769,,,,,,-0.365941,,,,,,0.000000,,,,,,1.776935,,,,,,-1.374577,,,
2.100000,,,,1.550862,,,,,,1.873566,,,,,,-0.242781,,,,,,-0.126995,,,,,,0.151000,,,,,,-0.224527,,,,,,0.000000,,,,,,1.776833,,,,,,-1.392531,,,
2.200000,,,,1.579813,,,,,,1.881521,,,,,,-0.395010,,,,,,-0.034317,,,,,,0.202356,,,,,,0.016709,,,,,,0.000000,,,,,,1.777085,,,,,,-1.382859,,,
2.300000,,,,1.641208,,,,,,1.902791,,,,,,-0.594042,,,,,,0.063511,,,,,,0.253713,,,,,,0.316174,,,,,,0.000000,,,,,,1.775395,,,,,,-1.366854,,,
2.500000,,,,1.693611,,,,,,1.922715,,,,,,-0.783767,,,,,,0.104701,,,,,,0.219475,,,,,,0.457589,,,,,,0.000000,,,,,,1.775501,,,,,,-1.328194,,,
2.600000,,,,1.757737,,,,,,1.930692,,,,,,-0.907413,,,,,,0.138168,,,,,,0.173825,,,,,,0.574047,,,,,,0.000000,,,,,,1.775502,,,,,,-1.420006,,,
2.700000,,,,1.751686,,,,,,1.920273,,,,,,-1.041531,,,,,,0.156189,,,,,,0.122468,,,,,,0.640595,,,,,,0.000000,,,,,,1.777138,,,,,,-1.418665,,,
2.800000,,,,1.688178,,,,,,1.887477,,,,,,-1.095750,,,,,,0.135594,,,,,,0.082524,,,,,,0.682188,,,,,,0.000000,,,,,,1.783594,,,,,,-1.397755,,,
2.900000,,,,1.644376,,,,,,1.880860,,,,,,-1.109191,,,,,,0.261740,,,,,,-0.070119,,,,,,0.835040,,,,,,0.000000,,,,,,1.783425,,,,,,-1.462223,,,
3.000000,,,,1.418657,,,,,,1.691703,,,,,,-1.084820,,,,,,0.254017,,,,,,-0.094371,,,,,,0.940061,,,,,,0.000000,,,,,,1.209528,,,,,,-1.264218,,,
3.100000,,,,1.160614,,,,,,1.429056,,,,,,-0.830698,,,,,,0.153615,,,,,,0.088230,,,,,,0.881831,,,,,,0.000000,,,,,,0.927234,,,,,,-1.143992,,,
3.200000,,,,0.876325,,,,,,1.150266,,,,,,-0.600063,,,,,,0.030043,,,,,,0.168118,,,,,,0.790328,,,,,,0.000000,,,,,,0.648049,,,,,,-0.908476,,,
3.300000,,,,0.607967,,,,,,0.865077,,,,,,-0.376201,,,,,,-0.224823,,,,,,0.299363,,,,,,0.490863,,,,,,0.000000,,,,,,0.365807,,,,,,-0.775347,,,
3.500000,,,,0.316536,,,,,,0.598898,,,,,,0.088937,,,,,,-0.415329,,,,,,0.584677,,,,,,0.307856,,,,,,0.000000,,,,,,0.085230,,,,,,-0.517203,,,
3.600000,,,,0.067686,,,,,,0.340091,,,,,,0.582570,,,,,,-0.592963,,,,,,0.835754,,,,,,0.108212,,,,,,0.000000,,,,,,-0.198448,,,,,,-0.366344,,,
3.700000,,,,-0.116459,,,,,,0.113146,,,,,,0.921733,,,,,,-0.755151,,,,,,1.058299,,,,,,-0.116387,,,,,,0.000000,,,,,,-0.486944,,,,,,-0.250045,,,
3.800000,,,,-0.405316,,,,,,-0.157722,,,,,,1.157190,,,,,,-0.891594,,,,,,1.258018,,,,,,-0.357623,,,,,,0.000000,,,,,,-0.765807,,,,,,0.032341,,,
3.900000,,,,-0.732082,,,,,,-0.506607,,,,,,1.664293,,,,,,-1.166091,,,,,,1.682423,,,,,,-0.802661,,,,,,0.000000,,,,,,-0.753332,,,,,,0.345912,,,
4.000000,,,,-0.760348,,,,,,-0.515171,,,,,,1.595832,,,,,,-1.138738,,,,,,1.697402,,,,,,-0.831776,,,,,,0.000000,,,,,,-0.752678,,,,,,0.411218,,,
4.100000,,,,-0.783779,,,,,,-0.531805,,,,,,1.461568,,,,,,-1.048633,,,,,,1.668871,,,,,,-0.798502,,,,,,0.000000,,,,,,-0.752080,,,,,,0.469321,,,
4.200000,,,,-0.812499,,,,,,-0.539609,,,,,,1.336473,,,,,,-0.829809,,,,,,1.594689,,,,,,-0.582222,,,,,,0.000000,,,,,,-0.750134,,,,,,0.599266,,,
4.300000,,,,-0.824449,,,,,,-0.571207,,,,,,0.963530,,,,,,-0.672770,,,,,,1.349319,,,,,,-0.499037,,,,,,0.000000,,,,,,-0.748934,,,,,,0.618658,,,
4.500000,,,,-0.860238,,,,,,-0.598581,,,,,,0.565212,,,,,,-0.528603,,,,,,1.126774,,,,,,-0.415852,,,,,,0.000000,,,,,,-0.746673,,,,,,0.766855,,,
4.600000,,,,-0.915912,,,,,,-0.641874,,,,,,0.306505,,,,,,-0.394734,,,,,,0.915642,,,,,,-0.307712,,,,,,0.000000,,,,,,-0.744335,,,,,,0.897952,,,
4.700000,,,,-0.931583,,,,,,-0.656453,,,,,,0.155329,,,,,,-0.281460,,,,,,0.698803,,,,,,-0.174616,,,,,,0.000000,,,,,,-0.745197,,,,,,0.904624,,,
4.800000,,,,-0.935195,,,,,,-0.668413,,,,,,0.021915,,,,,,-0.175909,,,,,,0.533321,,,,,,-0.049839,,,,,,0.000000,,,,,,-0.745513,,,,,,0.890184,,,
0.000000,,,,,-0.947930,,,,,,-0.751404,,,,,,-0.292488,,,,,,0.040341,,,,,,-0.282678,,,,,,0.216353,,,,,,0.000000,,,,,,-0.737715,,,,,,1.310989,,
0.100000,,,,,-0.895849,,,,,,-0.728891,,,,,,-0.075770,,,,,,0.030043,,,,,,-0.391097,,,,,,0.299538,,,,,,0.000000,,,,,,-0.740426,,,,,,1.078384,,
0.300000,,,,,-0.847109,,,,,,-0.708880,,,,,,0.090911,,,,,,0.019746,,,,,,-0.482398,,,,,,0.391041,,,,,,0.000000,,,,,,-0.740949,,,,,,1.009524,,
0.400000,,,,,-0.711063,,,,,,-0.626032,,,,,,0.453970,,,,,,0.009448,,,,,,-0.562286,,,,,,0.490863,,,,,,0.000000,,,,,,-0.447267,,,,,,0.473704,,
0.500000,,,,,-0.558786,,,,,,-0.502577,,,,,,0.801404,,,,,,-0.008573,,,,,,-0.739181,,,,,,0.532455,,,,,,0.000000,,,,,,-0.161299,,,,,,-0.032707,,
0.600000,,,,,-0.507753,,,,,,-0.487210,,,,,,0.962733,,,,,,-0.026594,,,,,,-0.961726,,,,,,0.574047,,,,,,0.000000,,,,,,-0.160823,,,,,,-0.058488,,
0.700000,,,,,-0.203705,,,,,,-0.289875,,,,,,1.564195,,,,,,-0.045258,,,,,,-1.610815,,,,,,0.722740,,,,,,0.000000,,,,,,0.226148,,,,,,-0.660799,,
0.800000,,,,,0.165575,,,,,,-0.020365,,,,,,2.036019,,,,,,0.019746,,,,,,-0.642174,,,,,,0.582366,,,,,,0.000000,,,,,,0.671228,,,,,,-1.047233,,
0.900000,,,,,0.504704,,,,,,0.276845,,,,,,1.702372,,,,,,-0.049763,,,,,,-0.522342,,,,,,0.307856,,,,,,0.000000,,,,,,0.948780,,,,,,-1.282733,,
1.000000,,,,,0.820267,,,,,,0.549005,,,,,,1.273204,,,,,,-0.065210,,,,,,-0.459573,,,,,,0.149805,,,,,,0.000000,,,,,,1.230206,,,,,,-1.335076,,
1.100000,,,,,1.167791,,,,,,0.827709,,,,,,0.960298,,,,,,-0.078082,,,,,,-0.402510,,,,,,-0.008246,,,,,,0.000000,,,,,,1.510608,,,,,,-1.658560,,
1.300000,,,,,1.399641,,,,,,1.056749,,,,,,0.373767,,,,,,-0.093528,,,,,,-0.368272,,,,,,-0.174616,,,,,,0.000000,,,,,,1.493952,,,,,,-1.330251,,
1.400000,,,,,1.631373,,,,,,1.242309,,,,,,-0.174156,,,,,,-0.134719,,,,,,-0.191377,,,,,,-0.324349,,,,,,0.000000,,,,,,1.484939,,,,,,-1.071865,,
1.500000,,,,,1.938727,,,,,,1.524502,,,,,,-0.525032,,,,,,-0.181058,,,,,,0.042580,,,,,,-0.499037,,,,,,0.000000,,,,,,1.763795,,,,,,-1.285734,,
1.600000,,,,,2.092809,,,,,,1.675130,,,,,,-1.102784,,,,,,-0.247993,,,,,,0.384957,,,,,,-0.706999,,,,,,0.000000,,,,,,1.762735,,,,,,-1.136258,,
1.700000,,,,,2.360805,,,,,,1.960890,,,,,,-2.241968,,,,,,-0.462312,,,,,,-0.031601,,,,,,-0.971111,,,,,,0.000000,,,,,,1.766744,,,,,,-1.062877,,
1.800000,,,,,2.296911,,,,,,1.970933,,,,,,-2.099721,,,,,,-0.484838,,,,,,-0.003070,,,,,,-1.031420,,,,,,0.000000,,,,,,1.767665,,,,,,-1.019074,,
1.900000,,,,,2.199200,,,,,,1.981466,,,,,,-1.931939,,,,,,-0.487413,,,,,,-0.003070,,,,,,-1.048056,,,,,,0.000000,,,,,,1.768868,,,,,,-0.959654,,
2.000000,,,,,2.076584,,,,,,1.988783,,,,,,-1.829268,,,,,,-0.492561,,,,,,0.042580,,,,,,-1.073012,,,,,,0.000000,,,,,,1.768932,,,,,,-0.808382,,
2.100000,,,,,1.986285,,,,,,1.981229,,,,,,-1.654685,,,,,,-0.451371,,,,,,0.053993,,,,,,-0.706999,,,,,,0.000000,,,,,,1.771923,,,,,,-0.884127,,
2.300000,,,,,1.891185,,,,,,1.982423,,,,,,-1.517156,,,,,,-0.420478,,,,,,-0.020189,,,,,,-0.682043,,,,,,0.000000,,,,,,1.773869,,,,,,-0.873259,,
2.400000,,,,,1.803362,,,,,,1.997342,,,,,,-1.422292,,,,,,-0.384436,,,,,,-0.094371,,,,,,-0.640451,,,,,,0.000000,,,,,,1.773517,,,,,,-0.894758,,
2.500000,,,,,1.684092,,,,,,2.004764,,,,,,-1.360625,,,,,,-0.338097,,,,,,-0.082958,,,,,,-0.573903,,,,,,0.000000,,,,,,1.775263,,,,,,-0.873146,,
2.600000,,,,,1.593624,,,,,,2.011039,,,,,,-1.331462,,,,,,-0.296906,,,,,,-0.111489,,,,,,-0.457444,,,,,,0.000000,,,,,,1.776026,,,,,,-0.848240,,
2.700000,,,,,1.447607,,,,,,2.014833,,,,,,-1.268323,,,,,,-0.207446,,,,,,-0.204930,,,,,,-0.147581,,,,,,0.000000,,,,,,1.778459,,,,,,-0.844142,,
2.800000,,,,,1.327187,,,,,,1.892496,,,,,,-1.284864,,,,,,-0.258290,,,,,,-0.282678,,,,,,-0.091431,,,,,,0.000000,,,,,,1.802274,,,,,,-1.014206,,
2.900000,,,,,1.127647,,,,,,1.672023,,,,,,-0.882209,,,,,,-0.587814,,,,,,-0.157140,,,,,,-0.390896,,,,,,0.000000,,,,,,1.819265,,,,,,-1.012455,,
3.000000,,,,,0.898161,,,,,,1.448413,,,,,,-0.501727,,,,,,-1.020315,,,,,,0.076818,,,,,,-1.064693,,,,,,0.000000,,,,,,1.531887,,,,,,-0.890928,,
3.100000,,,,,0.664284,,,,,,1.179735,,,,,,-0.159083,,,,,,-1.396178,,,,,,0.322188,,,,,,-1.297611,,,,,,0.000000,,,,,,1.253334,,,,,,-0.725564,,
3.300000,,,,,0.459934,,,,,,0.945813,,,,,,0.283105,,,,,,-1.759170,,,,,,0.533321,,,,,,-1.522210,,,,,,0.000000,,,,,,0.967555,,,,,,-0.701165,,
3.400000,,,,,0.286263,,,,,,0.725889,,,,,,0.755529,,,,,,-1.728277,,,,,,0.641740,,,,,,-1.414070,,,,,,0.000000,,,,,,0.681694,,,,,,-0.711123,,
3.500000,,,,,0.072455,,,,,,0.444934,,,,,,1.130990,,,,,,-2.083545,,,,,,0.778691,,,,,,-1.680261,,,,,,0.000000,,,,,,0.403995,,,,,,-0.511567,,
3.600000,,,,,-0.122979,,,,,,0.171496,,,,,,1.504485,,,,,,-2.428516,,,,,,0.944173,,,,,,-1.971408,,,,,,0.000000,,,,,,0.125700,,,,,,-0.315865,,
3.700000,,,,,-0.407034,,,,,,-0.193261,,,,,,2.267868,,,,,,-3.028353,,,,,,1.380704,,,,,,-2.608812,,,,,,0.000000,,,,,,-0.427617,,,,,,-0.047999,,
3.800000,,,,,-0.442629,,,,,,-0.280588,,,,,,2.025622,,,,,,-3.051522,,,,,,1.377850,,,,,,-2.728390,,,,,,0.000000,,,,,,-0.758700,,,,,,0.188297,,
3.900000,,,,,-0.483226,,,,,,-0.360577,,,,,,1.729606,,,,,,-2.644766,,,,,,1.178131,,,,,,-2.320784,,,,,,0.000000,,,,,,-0.751334,,,,,,0.312247,,
4.000000,,,,,-0.538863,,,,,,-0.399859,,,,,,1.450455,,,,,,-2.243158,,,,,,1.098243,,,,,,-1.988045,,,,,,0.000000,,,,,,-0.752214,,,,,,0.421449,,
4.100000,,,,,-0.596926,,,,,,-0.475765,,,,,,1.126544,,,,,,-1.859572,,,,,,0.949879,,,,,,-1.638669,,,,,,0.000000,,,,,,-0.745790,,,,,,0.629477,,
4.300000,,,,,-0.668025,,,,,,-0.568438,,,,,,0.790678,,,,,,-1.875018,,,,,,0.812928,,,,,,-1.622032,,,,,,0.000000,,,,,,-0.738840,,,,,,0.844242,,
4.400000,,,,,-0.723233,,,,,,-0.597430,,,,,,0.557164,,,,,,-1.494006,,,,,,0.698803,,,,,,-1.264337,,,,,,0.000000,,,,,,-0.740300,,,,,,0.860094,,
4.500000,,,,,-0.796316,,,,,,-0.631377,,,,,,0.325610,,,,,,-1.112993,,,,,,0.607502,,,,,,-0.906642,,,,,,0.000000,,,,,,-0.741866,,,,,,0.890447,,
4.600000,,,,,-0.876368,,,,,,-0.696914,,,,,,0.013040,,,,,,-0.747428,,,,,,0.607502,,,,,,-0.507355,,,,,,0.000000,,,,,,-0.737047,,,,,,1.111862,,
4.700000,,,,,-0.985713,,,,,,-0.760424,,,,,,-0.393786,,,,,,-0.033673,,,,,,0.494803,,,,,,0.310975,,,,,,0.000000,,,,,,-0.737159,,,,,,1.246423,,
0.000000,,,,,,-0.999874,,,,,,-0.772199,,,,,,-0.440206,,,,,,0.017171,,,,,,0.031168,,,,,,0.149805,,,,,,0.000000,,,,,,-0.736384,,,,,,1.281201,
0.100000,,,,,,-0.986307,,,,,,-0.734667,,,,,,-0.340861,,,,,,0.019746,,,,,,0.031168,,,,,,0.158123,,,,,,0.000000,,,,,,-0.742564,,,,,,1.084505,
0.200000,,,,,,-0.936185,,,,,,-0.677608,,,,,,-0.193692,,,,,,0.503734,,,,,,-0.579405,,,,,,0.307856,,,,,,0.000000,,,,,,-0.447182,,,,,,0.752609,
0.300000,,,,,,-0.928950,,,,,,-0.686164,,,,,,-0.207479,,,,,,0.954256,,,,,,-0.847600,,,,,,0.366085,,,,,,0.000000,,,,,,-0.446043,,,,,,0.775845,
0.400000,,,,,,-0.901042,,,,,,-0.678169,,,,,,-0.100257,,,,,,1.075575,,,,,,-0.975278,,,,,,0.404558,,,,,,0.000000,,,,,,-0.409347,,,,,,0.586072,
0.500000,,,,,,-0.885873,,,,,,-0.691675,,,,,,-0.118700,,,,,,0.959404,,,,,,-0.859013,,,,,,0.374404,,,,,,0.000000,,,,,,-0.445070,,,,,,0.606454,
0.600000,,,,,,-0.546198,,,,,,-0.398506,,,,,,-0.351630,,,,,,1.085550,,,,,,-0.796243,,,,,,0.058302,,,,,,0.000000,,,,,,-0.166603,,,,,,0.303822,
0.700000,,,,,,-0.210057,,,,,,-0.100894,,,,,,-0.575455,,,,,,1.206547,,,,,,-0.733474,,,,,,-0.266119,,,,,,0.000000,,,,,,0.110680,,,,,,-0.040663,
0.800000,,,,,,0.118802,,,,,,0.177453,,,,,,-0.853520,,,,,,1.324970,,,,,,-0.682118,,,,,,-0.590540,,,,,,0.000000,,,,,,0.391185,,,,,,-0.270210,
1.000000,,,,,,0.413409,,,,,,0.429309,,,,,,-1.209295,,,,,,1.430521,,,,,,-0.710649,,,,,,-0.923279,,,,,,0.000000,,,,,,0.675289,,,,,,-0.340206,
1.100000,,,,,,0.693464,,,,,,0.659962,,,,,,-1.596184,,,,,,1.046934,,,,,,-0.140021,,,,,,-1.397433,,,,,,0.000000,,,,,,0.657833,,,,,,-0.344330,
1.200000,,,,,,1.027566,,,,,,0.958613,,,,,,-1.841825,,,,,,0.694240,,,,,,0.076818,,,,,,-1.780083,,,,,,0.000000,,,,,,0.935794,,,,,,-0.600883,
1.300000,,,,,,1.336211,,,,,,1.254239,,,,,,-2.134898,,,,,,0.712261,,,,,,0.202356,,,,,,-1.771764,,,,,,0.000000,,,,,,1.213669,,,,,,-0.800273,
1.400000,,,,,,1.855554,,,,,,1.868722,,,,,,-2.598618,,,,,,0.791746,,,,,,0.488384,,,,,,-2.009881,,,,,,0.000000,,,,,,1.770318,,,,,,-1.230100,
1.500000,,,,,,1.912650,,,,,,1.870580,,,,,,-2.571052,,,,,,0.853854,,,,,,0.504789,,,,,,-2.054593,,,,,,0.000000,,,,,,1.769264,,,,,,-1.295707,
1.600000,,,,,,1.892910,,,,,,1.891958,,,,,,-2.368253,,,,,,0.689092,,,,,,0.356426,,,,,,-1.796720,,,,,,0.000000,,,,,,1.769557,,,,,,-1.243799,
1.700000,,,,,,1.880339,,,,,,1.907527,,,,,,-2.155958,,,,,,0.511458,,,,,,0.248006,,,,,,-1.505573,,,,,,0.000000,,,,,,1.769872,,,,,,-1.265885,
1.800000,,,,,,1.893224,,,,,,1.924373,,,,,,-1.956012,,,,,,0.341547,,,,,,0.208062,,,,,,-1.181152,,,,,,0.000000,,,,,,1.769917,,,,,,-1.282021,
2.000000,,,,,,1.894685,,,,,,1.932657,,,,,,-1.738205,,,,,,0.176785,,,,,,0.162412,,,,,,-0.848413,,,,,,0.000000,,,,,,1.770863,,,,,,-1.286928,
2.100000,,,,,,1.899641,,,,,,1.933446,,,,,,-1.505741,,,,,,0.019746,,,,,,0.099643,,,,,,-0.523992,,,,,,0.000000,,,,,,1.771242,,,,,,-1.387205,
2.200000,,,,,,1.874220,,,,,,1.891996,,,,,,-1.253721,,,,,,-0.052338,,,,,,-0.128608,,,,,,-0.548948,,,,,,0.000000,,,,,,1.779956,,,,,,-1.529130,
2.300000,,,,,,1.980247,,,,,,1.861005,,,,,,-1.102710,,,,,,-0.551773,,,,,,-0.105783,,,,,,-0.989827,,,,,,0.000000,,,,,,1.779843,,,,,,-1.651391,
2.400000,,,,,,1.799949,,,,,,1.759631,,,,,,-0.666787,,,,,,-1.438334,,,,,,0.263699,,,,,,-0.802661,,,,,,0.000000,,,,,,1.462527,,,,,,-1.621589,
2.500000,,,,,,1.503139,,,,,,1.479011,,,,,,-0.854819,,,,,,-1.324095,,,,,,0.179531,,,,,,-0.756910,,,,,,0.000000,,,,,,0.932650,,,,,,-1.376219,
2.600000,,,,,,1.155799,,,,,,1.165931,,,,,,-0.500424,,,,,,-1.475985,,,,,,0.504789,,,,,,-0.582222,,,,,,0.000000,,,,,,0.652926,,,,,,-1.181039,
2.700000,,,,,,0.880507,,,,,,0.872443,,,,,,-0.537874,,,,,,-1.635598,,,,,,0.584677,,,,,,-0.540629,,,,,,0.000000,,,,,,0.373544,,,,,,-0.973099,
2.800000,,,,,,0.539007,,,,,,0.592661,,,,,,-0.428203,,,,,,-1.792637,,,,,,0.675978,,,,,,-0.532311,,,,,,0.000000,,,,,,0.093946,,,,,,-0.628192,
3.000000,,,,,,0.213002,,,,,,0.316718,,,,,,-0.295629,,,,,,-1.952250,,,,,,0.841460,,,,,,-0.565585,,,,,,0.000000,,,,,,-0.185446,,,,,,-0.369100,
3.100000,,,,,,-0.033476,,,,,,0.093585,,,,,,0.076958,,,,,,-2.104140,,,,,,1.121068,,,,,,-0.657088,,,,,,0.000000,,,,,,-0.472485,,,,,,-0.056138,
3.200000,,,,,,-0.379698,,,,,,-0.171536,,,,,,0.482065,,,,,,-1.772042,,,,,,1.092536,,,,,,-0.340986,,,,,,0.000000,,,,,,-0.751214,,,,,,0.257882,
3.300000,,,,,,-0.675979,,,,,,-0.381810,,,,,,0.938310,,,,,,-1.427071,,,,,,0.784397,,,,,,-0.074794,,,,,,0.000000,,,,,,-0.745863,,,,,,0.525289,
3.400000,,,,,,-1.088026,,,,,,-0.695053,,,,,,1.894408,,,,,,-1.597626,,,,,,1.175277,,,,,,0.039585,,,,,,0.000000,,,,,,-0.739825,,,,,,0.762475,
3.500000,,,,,,-1.139747,,,,,,-0.722987,,,,,,2.028327,,,,,,-1.205672,,,,,,0.784397,,,,,,-0.083113,,,,,,0.000000,,,,,,-0.739981,,,,,,0.853710,
3.600000,,,,,,-1.177092,,,,,,-0.730204,,,,,,2.125302,,,,,,-0.984273,,,,,,0.830047,,,,,,-0.124705,,,,,,0.000000,,,,,,-0.738917,,,,,,0.923890,
3.700000,,,,,,-1.162064,,,,,,-0.741073,,,,,,2.037555,,,,,,-0.762874,,,,,,0.847166,,,,,,-0.116387,,,,,,0.000000,,,,,,-0.738848,,,,,,0.922836,
3.800000,,,,,,-1.159082,,,,,,-0.757048,,,,,,1.957329,,,,,,-0.544049,,,,,,0.812928,,,,,,-0.058157,,,,,,0.000000,,,,,,-0.738625,,,,,,0.961396,
4.000000,,,,,,-1.186446,,,,,,-0.783619,,,,,,1.622441,,,,,,-0.340671,,,,,,0.670271,,,,,,0.074939,,,,,,0.000000,,,,,,-0.738704,,,,,,0.999321,
4.100000,,,,,,-1.132259,,,,,,-0.801274,,,,,,1.297139,,,,,,-0.170760,,,,,,0.453433,,,,,,0.224671,,,,,,0.000000,,,,,,-0.738791,,,,,,0.942370,
4.200000,,,,,,-1.036478,,,,,,-0.793946,,,,,,0.851918,,,,,,-0.067784,,,,,,0.316482,,,,,,0.282901,,,,,,0.000000,,,,,,-0.738564,,,,,,0.951095,
4.300000,,,,,,-0.942608,,,,,,-0.786208,,,,,,0.407782,,,,,,0.012023,,,,,,0.242300,,,,,,0.282901,,,,,,0.000000,,,,,,-0.737576,,,,,,0.991031,
