Clock Time (s),Elapsed Time (s),ax,ay,az,gx,gy,gz,mr,mtheta,mphi,
71977.4,0.0,-0.22,-0.32,0.88,0.01,0.02,-0.03,43.037016625226244,0.4006703856338944,2.268816985238589,
71977.5,0.10000000000582077,-0.22,-0.33,0.91,-0.00,0.03,-0.01,42.03430979568952,0.395069541966349,2.2328474310055992,
71977.6,0.20000000001164153,-0.22,-0.32,0.90,-0.00,-0.00,0.01,43.05074447672189,0.40111911842887493,2.2658244556035823,
71977.7,0.3000000000029104,-0.21,-0.33,0.90,-0.00,0.01,0.00,43.6499450171475,0.3629436488417914,2.2810226684259294,
71977.8,0.40000000000873115,-0.22,-0.32,0.90,-0.00,0.02,0.01,41.935313281290746,0.3858476059771254,2.234688671689533,
71977.9,0.5,-0.22,-0.32,0.90,0.01,0.02,-0.00,42.506643010240175,0.38964294825170853,2.2630233411883927,
71978.1,0.7000000000116415,-0.23,-0.32,0.90,-0.00,0.03,-0.01,43.177569408200824,0.3825121689399544,2.2597719000862395,
71978.2,0.8000000000029104,-0.21,-0.32,0.90,0.01,-0.01,-0.02,42.840179738185036,0.3799936442911198,2.2769650693340595,
71978.3,0.9000000000087311,-0.23,-0.33,0.89,-0.00,0.03,-0.00,42.416315257221484,0.3908070770339086,2.2638704768113533,
71978.4,1.0,-0.23,-0.33,0.90,-0.02,-0.03,0.01,41.404358466229134,0.39701189656592595,2.3017266122972093,
71978.5,1.1000000000058208,-0.22,-0.33,0.90,-0.01,-0.02,0.01,41.83273000892961,0.3975705542580442,2.266759334636262,
71978.6,1.2000000000116415,-0.22,-0.32,0.90,0.00,0.03,-0.01,42.64112686128264,0.4168663057227073,2.260411347767067,
71978.7,1.3000000000029104,-0.22,-0.32,0.90,0.01,0.03,-0.01,41.76674873628542,0.3792858732432151,2.270581029974677,
71978.8,1.4000000000087311,-0.22,-0.32,0.89,0.01,0.02,-0.01,42.41608303462261,0.4006047372868784,2.2471349320822105,
71978.9,1.5,-0.22,-0.33,0.90,-0.00,0.03,-0.01,41.82127449038348,0.3621806229541283,2.2732372058979604,
71979.1,1.7000000000116415,-0.22,-0.32,0.90,-0.01,-0.01,0.00,40.68500829543973,0.3982182850790048,2.30140351455471,
71979.2,1.8000000000029104,-0.21,-0.33,0.90,-0.00,0.02,-0.00,42.51546189329242,0.4116955176798696,2.288169966985029,
71979.3,1.9000000000087311,-0.22,-0.32,0.90,-0.00,-0.00,-0.00,41.365911086303896,0.394667881999508,2.2867503997123837,
71979.4,2.0,-0.22,-0.32,0.90,-0.00,-0.01,0.00,41.66665813333246,0.4024428115891483,2.2594783303669987,
71979.5,2.1000000000058208,-0.21,-0.32,0.90,-0.01,-0.01,0.00,42.506448922487046,0.389193417271497,2.2636384822933797,
71979.6,2.2000000000116415,-0.21,-0.33,0.90,-0.01,-0.01,0.00,41.43848814809729,0.3768015656388165,2.3117289924972217,
71979.7,2.3000000000029104,-0.21,-0.32,0.91,-0.03,0.03,0.01,41.44100022924157,0.38877357980963545,2.2800760464209198,
71979.8,2.400000000008731,-0.21,-0.32,0.90,-0.04,-0.08,0.01,42.17932550432735,0.3839004847715997,2.270093894889143,
71979.9,2.5,-0.21,-0.32,0.90,0.02,-0.03,-0.01,42.17614135977828,0.37334700173801966,2.2550707331146396,
71980.1,2.7000000000116415,-0.21,-0.30,0.90,0.01,-0.01,0.00,42.20629929287807,0.3645068148834322,2.279812876542467,
71980.2,2.8000000000029104,-0.22,-0.30,0.91,-0.00,-0.03,0.00,42.116643978360855,0.4068130527761176,2.2741448731391647,
71980.3,2.900000000008731,-0.20,-0.33,0.91,-0.02,-0.07,0.01,42.2999397162691,0.39047282451857196,2.268314762163373,
71980.4,3.0,-0.19,-0.37,0.91,-0.02,-0.07,0.01,42.689571326027625,0.3857992209369644,2.321152824702132,
71980.5,3.1000000000058208,-0.14,-0.36,0.92,-0.02,-0.07,0.01,42.636307297888735,0.444244767113394,2.2913040952953416,
71980.6,3.2000000000116415,-0.20,-0.30,0.90,-0.03,-0.07,0.00,43.51037347575863,0.43985904155367866,2.303707121902736,
71980.7,3.3000000000029104,-0.19,-0.31,0.90,-0.03,-0.07,-0.00,42.24630279681288,0.40083814974786575,2.3029337484589165,
71980.8,3.400000000008731,-0.22,-0.30,0.91,0.57,-0.50,0.06,42.517164769067094,0.4475925660468857,2.3647403897735453,
71980.9,3.5,-0.06,-0.31,1.22,-0.03,-0.08,-0.01,41.66202467475627,0.39348218347122454,2.4168098044044455,
71981.1,3.7000000000116415,0.01,-0.15,1.17,1.57,-0.25,-0.08,41.90560225077311,0.06149753473578313,2.616977433162587,
71981.2,3.8000000000029104,0.04,-0.18,1.18,1.53,-0.78,-0.14,41.296315816304975,0.25607187629968337,2.545751512199949,
71981.3,3.900000000008731,0.02,-0.16,1.18,1.55,-0.52,-0.14,42.07952114746555,0.21665398026471272,2.5743824000630178,
71981.4,4.0,0.19,0.39,0.78,1.55,-0.44,-0.12,43.204630538867015,5.500256274566821,2.582667923384544,
71981.5,4.100000000005821,0.16,0.48,0.70,1.55,-0.38,-0.11,42.19414295847233,0.17215239657409223,2.5847593989315847,
71981.6,4.2000000000116415,0.19,0.46,0.74,1.56,-0.32,-0.09,43.921818040695904,5.455293055096988,2.480557477929688,
71981.7,4.30000000000291,-0.01,-0.09,1.11,1.57,-0.28,-0.08,44.304778523315065,5.414380600362952,2.434747586363739,
71981.8,4.400000000008731,-0.02,-0.08,1.02,0.25,-0.39,-0.30,42.25330992951913,0.14962704821310477,2.590146205890237,
71981.9,4.5,-0.04,-0.06,0.98,0.18,-0.09,-0.19,44.91459117035354,5.3886947849269555,2.411953179752649,
71982.1,4.7000000000116415,0.17,0.62,0.69,-0.04,-0.24,-0.11,43.90270720582046,5.367240186181874,2.401566679803646,
71982.2,4.80000000000291,0.17,0.62,0.68,0.08,-0.14,-0.10,44.07825200708395,5.390763589274126,2.403600039727934,
71982.3,4.900000000008731,0.16,0.61,0.66,0.03,-0.04,-0.07,44.51020220129313,5.415795717479019,2.397955270054306,
71982.4,5.0,0.15,0.59,0.64,-0.02,-0.10,-0.12,42.719738997330026,5.456133929440481,2.43674269268116,
71982.5,5.100000000005821,0.14,0.59,0.70,-0.02,-0.15,-0.13,44.702454071337065,5.42000700684198,2.402211367983001,
71982.6,5.2000000000116415,0.15,0.60,0.68,-0.03,-0.24,-0.12,44.36570747773555,5.400328548732515,2.4946221773653408,
71982.7,5.30000000000291,0.17,0.60,0.68,-0.04,-0.26,-0.11,45.08893766768075,5.361394109400234,2.451430182854259,
71982.8,5.400000000008731,0.17,0.64,0.70,0.02,0.20,-0.05,45.37548236658207,5.407307048021383,2.4628997207370125,
71982.9,5.5,0.14,0.62,0.76,-0.08,-0.27,-0.01,42.89147817457449,5.401562020435227,2.3921668682996566,
71983.1,5.7000000000116415,0.17,0.59,0.76,-0.13,-0.14,0.11,44.37349884784837,5.393351134281741,2.491405610495904,
71983.2,5.80000000000291,0.17,0.58,0.77,-0.10,-0.05,0.14,43.958896710449864,5.4159151445506675,2.498200845451056,
71983.3,5.900000000008731,0.20,0.58,0.82,-0.07,0.05,0.15,43.703311087376434,5.360553758638247,2.4625939010453033,
71983.4,6.0,0.20,0.58,0.81,-0.02,0.21,0.14,44.411884670659944,5.3638315405998895,2.4607526541039517,
71983.5,6.100000000005821,0.19,0.58,0.80,-0.00,0.25,0.13,43.93562335963836,5.416580145458326,2.496632543028305,
71983.6,6.2000000000116415,0.18,0.60,0.77,0.02,0.31,0.11,44.77624146799282,5.302498507335557,2.358357684368648,
71983.7,6.30000000000291,0.19,0.61,0.76,0.04,0.32,0.09,44.171853028823676,5.395796296776856,2.4674889788575856,
71983.8,6.400000000008731,0.22,0.62,0.70,-0.12,-0.19,0.09,43.620910123471745,5.398885325552362,2.4032032028183825,
71983.9,6.5,0.21,0.63,0.70,-0.13,-0.17,0.10,42.536409110313954,5.39121322338423,2.472313833716266,
71984.1,6.7000000000116415,0.03,0.17,0.88,-1.08,0.82,-0.27,43.57415977388434,5.839692724930046,2.515924735268432,
71984.2,6.80000000000291,0.15,0.24,0.90,-1.51,0.45,-0.37,42.987645899723326,5.675910303902436,2.576293992332969,
71984.3,6.900000000008731,0.05,0.24,0.83,-1.04,0.38,-0.07,41.01939297454315,0.006226569592633664,2.513880498906956,
71984.4,7.0,-0.00,0.28,0.87,-1.01,0.48,-0.18,42.98382137502435,5.701896383679243,2.5618320771213408,
71984.5,7.100000000005821,0.14,0.27,0.95,-1.04,0.62,-0.25,43.007202885098216,5.7364117551737905,2.541371296440696,
71984.6,7.2000000000116415,0.04,0.31,0.93,-1.05,0.59,-0.23,42.018084201924296,0.4556969814518249,2.3527917258986557,
71984.7,7.30000000000291,0.15,0.25,0.92,-1.06,0.60,-0.22,43.22817946663958,5.7564768590080195,2.531516272140214,
71984.8,7.400000000008731,0.08,0.24,0.93,-1.07,0.65,-0.23,43.64570311038648,5.790406175572814,2.5136595192605187,
71984.9,7.5,0.05,0.18,0.89,-0.17,-0.06,-0.02,42.96637173418301,0.4270426677358515,2.3050844653914933,
71985.1,7.7000000000116415,-0.16,-0.33,0.89,-0.05,-0.03,-0.00,42.524967960011445,0.481878408064767,2.2936051235923283,
71985.2,7.80000000000291,-0.15,-0.32,0.88,0.01,0.07,-0.02,42.31192975982069,0.4679797118641438,2.320426505369532,
71985.3,7.900000000008731,-0.15,-0.32,0.89,-0.08,0.07,-0.08,41.28000726744122,0.44230984598517065,2.343618862964395,
71985.4,8.0,-0.16,-0.34,0.93,-0.06,0.09,-0.08,43.24413717488187,0.47482352998397037,2.335214196113206,
71985.5,8.10000000000582,-0.16,-0.34,0.92,-0.08,-0.00,-0.04,42.68531480497713,0.4605110353119087,2.3161329213393254,
71985.6,8.200000000011642,-0.17,-0.34,0.92,-0.07,-0.01,-0.03,42.866990797115676,0.45220318735437964,2.324315461260087,
71985.7,8.30000000000291,-0.16,-0.34,0.93,-0.06,-0.01,-0.02,42.73622117127344,0.4436359848221634,2.320135671076486,
71985.8,8.400000000008731,-0.16,-0.33,0.93,-0.06,-0.02,-0.01,41.48357506290893,0.43403829388166854,2.2877979956437264,
71985.9,8.5,-0.16,-0.33,0.93,0.00,0.05,-0.01,43.28518684261395,0.48669702779016477,2.3481486474114868,
71986.1,8.700000000011642,-0.16,-0.32,0.92,-0.00,0.02,-0.00,42.086883942625164,0.4849178962386619,2.3241120646055937,
71986.2,8.80000000000291,-0.16,-0.32,0.92,-0.02,-0.00,0.00,41.1550993195254,0.4653109977585313,2.3397978524173224,
71986.3,8.900000000008731,-0.15,-0.32,0.92,-0.01,0.01,0.01,41.91187659840585,0.48482778679795774,2.3224685244486514,
71986.4,9.0,-0.16,-0.32,0.91,-0.00,0.00,0.01,42.45730325868566,0.48829898388185494,2.303217355116728,
71986.5,9.10000000000582,-0.16,-0.32,0.92,0.01,-0.00,0.01,43.585975955575435,0.48446308210885375,2.3381875561607934,
71986.6,9.200000000011642,-0.16,-0.32,0.91,-0.01,0.01,0.01,41.811217394378744,0.48940842694671327,2.303604033574368,
71986.7,9.30000000000291,-0.16,-0.32,0.91,-0.00,0.01,0.01,42.42344870469632,0.46053543910800515,2.3007675492229422,
71986.8,9.400000000008731,-0.16,-0.32,0.91,-0.00,0.01,-0.00,42.1898483050129,0.43856586295595124,2.3215015869445415,
71986.9,9.5,-0.16,-0.32,0.92,-0.00,0.02,-0.00,42.19138063633377,0.46774774710241995,2.3322181669353537,
71987.1,9.700000000011642,-0.17,-0.31,0.91,-0.01,-0.01,0.00,42.24422445731487,0.49333619911362786,2.305846288858755,
71987.2,9.80000000000291,-0.17,-0.31,0.91,-0.01,-0.02,-0.01,43.0101720526668,0.4605831249316928,2.2988579885169704,
71987.3,9.900000000008731,-0.17,-0.32,0.92,-0.01,-0.02,-0.01,43.103880335765595,0.46836520963459655,2.296921674149804,
71987.4,10.0,-0.17,-0.32,0.91,-0.01,-0.03,-0.01,42.626877671253375,0.4535584245593148,2.3110254484296986,
71987.5,10.10000000000582,-0.17,-0.32,0.91,-0.01,-0.03,-0.01,42.03719662394247,0.4649265624032268,2.2955943735135014,
71987.6,10.200000000011642,-0.16,-0.32,0.91,-0.01,-0.03,-0.00,42.3567916632032,0.46028799558183875,2.3337154567157343,
71987.7,10.30000000000291,-0.16,-0.32,0.91,-0.01,-0.03,-0.00,42.31265531729249,0.4860108111309236,2.2983561009406053,
71987.8,10.400000000008731,-0.16,-0.32,0.91,-0.07,-0.00,0.03,41.99064657754153,0.5011726478310692,2.294350035501276,
71987.9,10.5,-0.16,-0.32,0.91,-0.01,-0.02,0.00,42.721146988347584,0.47148180798440104,2.2961120152692995,
71988.1,10.700000000011642,-0.10,-0.28,1.19,0.80,-0.42,0.44,43.08701080372135,0.43406704127950774,2.333567557169619,
71988.2,10.80000000000291,-0.12,-0.29,1.20,1.19,-0.82,0.55,42.1213674991684,0.4533681309942241,2.3030459347713164,
71988.3,10.900000000008731,-0.14,-0.27,1.21,0.35,-0.37,0.20,42.93444421440669,0.09803250280194535,2.5044242395171628,
71988.4,11.0,-0.14,-0.26,1.21,0.39,-0.35,0.20,42.533285788897146,6.035524486872544,2.60612931775863,
71988.5,11.10000000000582,-0.12,-0.28,1.19,0.58,-0.26,0.29,41.90951562592916,0.4374571991486102,2.324155597467177,
71988.6,11.200000000011642,-0.14,-0.25,1.22,0.63,-0.27,0.32,42.41184975923592,0.4627776657665887,2.327274982077618,
71988.7,11.30000000000291,-0.16,-0.26,1.22,0.32,-0.38,0.21,43.249939884351285,5.4369362855638235,2.4919527706269653,
71988.8,11.400000000008731,-0.16,-0.27,1.21,0.73,-0.31,0.39,42.8277129905392,0.444765609410598,2.3312818958874746,
71988.9,11.5,-0.16,-0.27,1.18,0.78,-0.38,0.43,44.208770623033615,5.370435747961863,2.409111675740556,
71989.1,11.700000000011642,0.11,0.49,0.61,0.20,-0.29,-0.47,43.969373431969665,5.411038850796435,2.3665066784448285,
71989.2,11.80000000000291,0.12,0.54,0.62,0.16,-0.26,-0.33,42.727817636757436,5.380155228296241,2.3630651839593892,
71989.3,11.900000000008731,0.13,0.57,0.61,0.14,-0.25,-0.31,43.104415087088235,5.39144140222541,2.404305970820278,
71989.4,12.0,0.13,0.58,0.63,-0.02,0.04,0.02,44.21871323320026,5.392516499587809,2.3639853450394313,
71989.5,12.10000000000582,0.13,0.56,0.64,0.10,-0.27,-0.30,45.41158222304085,5.401698428264771,2.3646123064604816,
71989.6,12.200000000011642,0.13,0.53,0.64,0.04,-0.31,-0.27,43.73769312618122,5.390116739690388,2.4080952413085037,
71989.7,12.30000000000291,0.11,0.46,0.62,0.02,-0.32,-0.24,44.70242275313498,5.430762831150955,2.377318453954225,
71989.8,12.400000000008731,0.12,0.50,0.65,0.24,-0.28,-0.53,44.39476207842542,5.444279260706418,2.3829366948365083,
71989.9,12.5,0.14,0.51,0.64,0.22,-0.29,-0.52,43.03256092774401,5.38557777153683,2.364159099420105,
71990.1,12.700000000011642,0.25,0.56,0.83,-0.19,-0.82,0.16,44.45499859408388,5.403619399648581,2.4029742034126924,
71990.2,12.80000000000291,0.21,0.58,0.86,0.11,-0.00,0.28,44.28356805859257,5.367948459588265,2.489601549142818,
71990.3,12.900000000008731,0.23,0.52,0.57,0.08,1.19,0.49,43.59657899422844,5.301407947033861,2.4652667405976403,
71990.4,13.0,0.24,0.52,0.74,-0.14,-0.68,0.16,44.28435502522307,5.365847831318366,2.4940571629686947,
71990.5,13.10000000000582,0.21,0.54,0.73,-0.12,-0.62,0.16,43.05062833455512,5.471655193770766,2.3244541323517236,
71990.6,13.200000000011642,0.23,0.57,0.72,-0.01,-0.06,0.17,43.41551450806497,5.571882923980462,2.378950763544395,
71990.7,13.30000000000291,0.23,0.58,0.86,-0.01,0.08,0.17,43.158931868154475,5.292771689659466,2.4783787369806727,
71990.8,13.400000000008731,0.24,0.57,0.85,-0.01,0.20,0.18,43.197558958811555,5.294020912939014,2.47949107309305,
71990.9,13.5,0.22,0.53,0.68,-0.01,0.29,0.20,42.415380465109585,0.014614344087233241,2.4816764453687195,
71991.1,13.700000000011642,-0.18,-0.09,1.13,-0.86,0.34,-0.16,42.10700773030541,0.2655096587899116,2.4028367524758876,
71991.2,13.80000000000291,-0.11,-0.07,1.18,-0.85,0.27,-0.15,42.33378083752974,0.17336784230980748,2.4741784196094083,
71991.3,13.900000000008731,-0.10,-0.11,1.16,-0.53,0.33,-0.07,41.79765184792083,0.1759735220340446,2.475768252442558,
71991.4,14.0,-0.12,-0.17,1.11,-0.83,0.10,-0.14,42.72139744905356,0.4026177708756825,2.283044001779465,
71991.5,14.10000000000582,-0.14,-0.18,1.09,-0.02,0.27,0.16,42.17338497204131,0.1995965834415855,2.4550996518206305,
71991.6,14.200000000011642,-0.17,-0.19,1.07,-0.09,-0.18,-0.14,42.65207732338485,0.43095930093172924,2.348940359182385,
71991.7,14.30000000000291,-0.16,-0.16,1.07,-0.01,0.22,-0.02,42.074521981835986,0.21385647049388187,2.443425687800866,
71991.8,14.400000000008731,-0.15,-0.13,1.07,-0.79,0.14,-0.15,41.000191462967585,0.25465864496265245,2.4126065794251996,
71991.9,14.5,-0.11,-0.09,1.08,-0.68,0.38,-0.10,41.90003102624149,0.4632175631557573,2.301698005627026,
71992.1,14.700000000011642,-0.19,-0.31,0.91,0.04,0.10,-0.00,41.36187737518693,0.425194194653027,2.266188481106785,
71992.2,14.80000000000291,-0.19,-0.30,0.90,0.04,0.06,-0.01,42.68531480497713,0.4605110353119087,2.3161329213393254,
71992.3,14.900000000008731,-0.20,-0.31,0.91,0.04,0.13,0.00,41.94282894607849,0.42444644284727634,2.2921779936361864,
71992.4,15.0,-0.17,-0.30,0.91,-0.00,-0.01,0.00,41.52751979109757,0.43856586295595124,2.304245093783303,
71992.5,15.10000000000582,-0.17,-0.29,0.91,-0.01,0.02,0.01,41.80793226171321,0.4605110353119087,2.2931049649644084,
71992.6,15.200000000011642,-0.17,-0.30,0.91,0.04,0.02,-0.01,43.23982539280195,0.43438164071499985,2.289207726770378,
71992.7,15.30000000000291,-0.16,-0.30,0.90,0.03,0.01,-0.00,43.77050833609315,0.42692613430061693,2.2786564675718246,
71992.8,15.400000000008731,-0.17,-0.30,0.91,-0.01,0.00,0.01,42.14981138747836,0.4605831249316928,2.275656041165456,
71992.9,15.5,-0.17,-0.31,0.91,-0.00,-0.01,-0.01,41.43023774974022,0.4257143466771407,2.2695317746172146,
71993.1,15.700000000011642,-0.18,-0.31,0.92,-0.01,-0.04,0.02,40.96864410741463,0.4626073359327513,2.316607313659644,
71993.2,15.80000000000291,-0.18,-0.32,0.92,-0.01,-0.04,0.02,41.737299864749275,0.44182822248500164,2.2914040486270215,
71993.3,15.900000000008731,-0.17,-0.31,0.92,-0.02,-0.04,0.02,41.54482518918572,0.4143764238188311,2.303869786356347,
71993.4,16.0,-0.17,-0.32,0.92,-0.00,0.03,-0.00,42.16045303361908,0.4220286765736487,2.2980773401955785,
71993.5,16.10000000000582,-0.17,-0.32,0.91,-0.01,0.00,0.00,42.440241516749175,0.43598838016329133,2.3153704961787795,
71993.6,16.20000000001164,-0.17,-0.32,0.91,-0.02,-0.03,0.02,42.42466028149194,0.425194194653027,2.2956925402619315,
71993.7,16.30000000000291,-0.17,-0.32,0.91,-0.01,0.00,0.01,41.260001211827415,0.4471639681470049,2.313717267258642,
71993.8,16.40000000000873,-0.18,-0.31,0.92,-0.01,0.02,-0.00,42.752887621773574,0.43030347461545954,2.2889125283718936,
71993.9,16.5,-0.18,-0.31,0.91,-0.01,0.02,-0.00,41.92533720794622,0.465194071988433,2.280219306855572,
71994.1,16.70000000001164,-0.17,-0.32,0.92,-0.01,0.00,-0.00,42.11589011287782,0.49203556062217274,2.279151872166988,
71994.2,16.80000000000291,-0.17,-0.32,0.92,-0.01,-0.00,0.00,42.49698812857213,0.4490582962674963,2.293244613474032,
71994.3,16.90000000000873,-0.18,-0.32,0.91,-0.01,-0.00,0.00,42.20031871917557,0.4295214603174787,2.3004112595306516,
71994.4,17.0,-0.17,-0.32,0.91,-0.01,0.00,0.00,41.17165044056407,0.4360507467044171,2.2725917439171246,
71994.5,17.10000000000582,-0.17,-0.32,0.90,-0.01,-0.00,-0.00,42.10427294230361,0.42319989201266656,2.2916523883847337,
71994.6,17.20000000001164,-0.18,-0.31,0.91,-0.01,0.01,0.01,43.15941959758032,0.40423545690192775,2.306041460519666,
71994.7,17.30000000000291,-0.18,-0.31,0.91,-0.01,-0.00,-0.00,42.80335150429228,0.4306848426160421,2.2962827420874152,
71994.8,17.40000000000873,-0.18,-0.32,0.91,-0.01,-0.00,-0.00,42.636307297888735,0.444244767113394,2.2913040952953416,
71994.9,17.5,-0.18,-0.32,0.91,-0.01,-0.00,-0.00,42.97842481990237,0.45354280477551134,2.275140495554819,
71995.1,17.70000000001164,-0.17,-0.32,0.91,0.01,-0.00,-0.00,40.99802678178549,0.4493690467685326,2.2838913928253426,
71995.2,17.80000000000291,-0.17,-0.32,0.91,0.01,0.00,-0.00,42.33811285355076,0.4723202990428595,2.266943596205144,
71995.3,17.90000000000873,-0.17,-0.32,0.91,0.01,0.02,-0.00,42.4681115662093,0.4021039601116632,2.303938760774132,
71995.4,18.0,-0.17,-0.32,0.91,0.00,0.01,-0.00,42.441669382812925,0.47623687192735914,2.2756837986266065,
71995.5,18.10000000000582,-0.17,-0.32,0.91,0.00,0.00,-0.00,42.1262495363639,0.45584204332978157,2.316752308024483,
71995.6,18.20000000001164,-0.17,-0.32,0.91,-0.00,-0.00,0.00,43.290939005755,0.4794196120762144,2.3082793733573843,
71995.7,18.30000000000291,-0.17,-0.32,0.91,-0.00,-0.00,0.00,42.471230262378796,0.44119564608072176,2.3207951447567794,
71995.8,18.40000000000873,-0.17,-0.32,0.91,0.00,-0.00,0.00,43.444080149083604,0.46087176602630525,2.3060122418145124,
71995.9,18.5,-0.17,-0.32,0.91,0.00,-0.00,-0.00,42.59214598960705,0.43719138770175775,2.2872227637812785,
71996.1,18.70000000001164,-0.00,-0.06,1.16,1.16,-0.97,0.38,41.645231419695584,0.29502924938795255,2.4588403195109017,
71996.2,18.80000000000291,-0.05,-0.16,1.19,1.20,-0.95,0.36,40.47412753846585,0.3031986203557945,2.4846513772527263,
71996.3,18.90000000000873,-0.04,-0.17,1.20,1.22,-0.91,0.34,43.42977434894176,5.820172484382133,2.633335959932856,
71996.4,19.0,0.03,-0.11,1.24,1.25,-0.80,0.30,40.832992787695595,0.258596111606129,2.501101933156603,
71996.5,19.10000000000582,0.03,-0.10,1.23,1.26,-0.76,0.29,41.39444769531295,0.19625400783433325,2.5215906077995625,
71996.6,19.20000000001164,0.02,-0.09,1.21,1.29,-0.68,0.25,42.270804345316165,5.305017373306294,2.4493216636898243,
71996.7,19.30000000000291,0.01,-0.09,1.20,1.12,-0.99,0.39,41.80269249701507,0.1623193426139627,2.535214376631402,
71996.8,19.40000000000873,0.01,-0.09,1.19,1.14,-0.98,0.39,42.34132260570045,0.12067467467528686,2.550611613030121,
71996.9,19.5,-0.01,-0.08,1.17,-0.00,0.17,-0.05,43.36735292821086,5.297882178911024,2.417273112097027,
71997.1,19.70000000001164,0.08,0.52,0.73,-0.07,0.51,-0.24,42.83169854208445,5.3473856875484795,2.42226153234333,
71997.2,19.80000000000291,0.06,0.55,0.74,0.03,0.53,-0.05,44.36593851143014,5.407999276956655,2.373187615487791,
71997.3,19.90000000000873,0.05,0.51,0.75,0.05,0.45,-0.00,42.843121968409356,5.36507427953023,2.3992315006000915,
71997.4,20.0,0.12,0.64,0.80,-0.08,0.54,-0.23,43.591203241021006,5.3262797570615055,2.4060011900020672,
71997.5,20.10000000000582,0.14,0.62,0.82,0.15,0.28,0.02,42.460810166552406,0.41665594943484213,2.2746823545267993,
71997.6,20.20000000001164,0.20,0.61,0.80,0.18,0.26,0.02,43.60377277254802,5.384068495891901,2.3797440674995265,
71997.7,20.30000000000291,0.04,0.50,0.76,-0.10,0.54,-0.25,41.875335222538816,0.3494566002313291,2.3461023826469067,
71997.8,20.40000000000873,0.26,0.64,0.71,-0.11,0.52,-0.26,42.47402029476372,0.3522353241182643,2.354409162506042,
71997.9,20.5,0.23,0.65,0.71,-0.10,0.51,-0.26,41.46418333935928,0.399944053157161,2.2952690102930675,
71998.1,20.70000000001164,-0.19,-0.30,0.92,-0.01,0.01,-0.02,41.220055798118466,0.4085158967451202,2.3109873655702176,
71998.2,20.80000000000291,-0.19,-0.29,0.91,-0.00,0.02,-0.02,43.36760772742716,0.38964294825170853,2.2866346140448504,
71998.3,20.90000000000873,-0.19,-0.29,0.92,-0.00,0.02,-0.02,43.17844832784059,0.3962567011012712,2.287990105656594,
71998.4,21.0,-0.19,-0.29,0.92,0.01,0.01,0.01,41.46418333935928,0.399944053157161,2.2952690102930675,
71998.5,21.10000000000582,-0.19,-0.30,0.90,-0.00,0.04,0.00,42.113235449202904,0.4035185608988419,2.294630145648427,
71998.6,21.20000000001164,-0.19,-0.30,0.92,-0.02,0.01,-0.04,43.737728564707155,0.40587514749114373,2.2732914932910697,
71998.7,21.30000000000291,-0.19,-0.31,0.91,-0.02,0.01,-0.04,42.206574132473726,0.425194194653027,2.2898396859269257,
71998.8,21.40000000000873,-0.19,-0.31,0.91,-0.00,0.01,-0.02,41.74585248860059,0.38854990374236753,2.3069519004914527,
71998.9,21.5,-0.19,-0.30,0.91,0.00,-0.00,-0.02,42.064315042563095,0.42269504695467186,2.292804010174369,
71999.1,21.70000000001164,-0.19,-0.29,0.92,-0.01,0.01,0.00,42.928784049865655,0.3874342917855643,2.2361042775390567,
71999.2,21.80000000000291,-0.19,-0.29,0.90,-0.01,0.01,0.00,42.26282763848155,0.4061919575106869,2.307363233121089,
71999.3,21.90000000000873,-0.19,-0.29,0.92,-0.00,-0.01,0.01,41.85575468200281,0.40634148083344784,2.282278143983485,
71999.4,22.0,-0.20,-0.29,0.91,0.00,0.02,0.00,42.492848810123334,0.40832905274152065,2.2993069919827622,
71999.5,22.10000000000582,-0.20,-0.30,0.91,-0.01,0.00,-0.00,42.4533673576078,0.386327171433881,2.3138054460981365,
71999.6,22.20000000001164,-0.20,-0.29,0.92,-0.01,-0.00,-0.00,42.39249225983299,0.3839004847715997,2.2760512866628897,
71999.7,22.30000000000291,-0.20,-0.29,0.92,-0.01,-0.02,0.01,42.644184832166744,0.425194194653027,2.3014853324691518,
71999.8,22.40000000000873,-0.19,-0.29,0.92,-0.00,0.01,0.00,42.71951661711542,0.40423545690192775,2.2945827517048976,
71999.9,22.5,-0.20,-0.29,0.92,-0.00,-0.02,0.01,42.71951661711542,0.40423545690192775,2.2945827517048976,
72000.1,22.70000000001164,-0.19,-0.29,0.91,-0.01,-0.01,0.00,42.52199195710379,0.3915745389402414,2.288035996238924,
72000.2,22.80000000000291,-0.19,-0.29,0.91,-0.01,0.02,-0.00,41.46418333935928,0.399944053157161,2.2952690102930675,
72000.3,22.90000000000873,-0.20,-0.30,0.91,-0.00,0.01,-0.00,41.56596083335498,0.4002746263483471,2.289582316074689,
72000.4,23.0,-0.19,-0.30,0.91,-0.00,-0.02,-0.00,41.27884930566743,0.38175771718142903,2.2860166748101394,
72000.5,23.10000000000582,-0.19,-0.29,0.92,-0.00,-0.00,-0.00,41.80639903172719,0.40171142445000196,2.2776205672563,
72000.7,23.30000000000291,-0.19,-0.29,0.91,-0.01,0.01,0.01,42.15795298635834,0.39671646207775857,2.2811098572473316,
72000.9,23.5,-0.19,-0.30,0.91,-0.01,-0.01,0.00,42.648345806138835,0.3906577270785628,2.286075886319759,
72002.1,24.70000000001164,-0.19,-0.30,0.91,-0.01,-0.00,-0.00,42.275844166616,0.3848164475440497,2.271574499055757,
72002.2,24.80000000000291,-0.19,-0.30,0.92,-0.01,-0.02,0.00,42.277938691473594,0.3856986835302646,2.3019436261093995,
72002.3,24.90000000000873,-0.19,-0.30,0.91,-0.00,-0.00,0.00,42.58348153920719,0.3917627195937898,2.291143253405682,
72002.4,25.0,-0.19,-0.30,0.91,0.00,-0.00,-0.01,41.90099521491107,0.3688997554734912,2.301677375370626,
72002.5,25.10000000000582,-0.19,-0.29,0.91,-0.01,-0.00,-0.01,41.220696258069204,0.41061667179259553,2.291755257525991,
72002.6,25.20000000001164,-0.20,-0.34,0.96,-0.01,0.00,-0.00,41.83338977419831,0.3788978952396691,2.3008791777196613,
72002.7,25.30000000000291,-0.19,-0.30,0.92,-0.01,0.01,-0.00,41.60219465364778,0.41688546743307137,2.297471029826262,
72002.8,25.40000000000873,-0.20,-0.30,0.91,-0.01,0.00,-0.00,42.29549148549996,0.44235961654699557,2.2628626689195874,
72002.9,25.5,-0.22,-0.30,1.27,-0.01,-0.01,0.01,41.98693368180153,0.29979338182058984,2.3421712305355107,
72003.1,25.70000000001164,-0.03,-0.09,1.16,1.36,-0.78,0.76,42.409487146156344,0.09354107660895478,2.534444653757324,
72003.2,25.80000000000291,-0.01,-0.07,1.17,1.36,-0.78,0.75,42.57305603312969,0.042554938637206295,2.563276213260132,
72003.3,25.90000000000873,0.02,-0.05,1.20,1.36,-0.75,0.74,43.027027552458236,5.593861656670599,2.5531439389879034,
72003.4,26.0,0.06,-0.03,1.20,1.37,-0.68,0.75,42.09240430291432,6.24936692263308,2.5699378571081297,
72003.5,26.10000000000582,-0.04,-0.09,1.15,1.40,-0.61,0.75,43.15079373545752,5.312664298109839,2.5212137911016876,
72003.6,26.20000000001164,0.09,0.01,1.14,0.48,-0.11,-0.75,41.948302707022606,6.223054255044631,2.571755376977733,
72003.7,26.30000000000291,0.10,0.03,1.13,1.37,-0.77,0.77,44.15849861578177,5.319962038773712,2.406318067984918,
72003.8,26.40000000000873,0.08,0.09,1.05,1.45,-0.49,0.62,44.7500346368581,5.328021833761062,2.3849578748301026,
72003.9,26.5,0.08,0.12,1.04,1.44,-0.54,0.54,42.99281451591649,5.30267385128608,2.3568357809324936,
72004.1,26.70000000001164,0.11,0.65,0.71,0.14,0.29,-0.13,43.85104103667323,5.350086360033178,2.322025966117015,
72004.2,26.80000000000291,0.17,0.68,0.74,0.02,-0.09,0.04,44.092096797498755,5.356897201571159,2.3368844339168757,
72004.3,26.90000000000873,0.21,0.66,0.61,-0.03,0.12,-0.01,41.976492230771264,5.345357009479734,2.3645897385534544,
72004.4,27.0,0.14,0.63,0.72,0.10,0.37,-0.14,43.57053591591455,5.3606587087865405,2.34878826581862,
72004.5,27.10000000000582,0.23,0.66,0.61,-0.09,-0.05,-0.02,44.48020458586044,5.357365771412336,2.3650646552842036,
72004.6,27.20000000001164,0.18,0.69,0.64,0.09,0.41,-0.14,43.20628889409503,5.329250518409811,2.389775793272139,
72004.7,27.30000000000291,0.15,0.70,0.64,0.05,0.22,-0.10,43.06531783233464,5.34348863620901,2.349916386914103,
72004.8,27.40000000000873,0.09,0.63,0.72,0.16,0.26,-0.11,43.440033379361026,5.346631094515851,2.3363124495501264,
72004.9,27.5,0.09,0.63,0.73,-0.34,0.73,0.43,43.6812144977678,5.298310515637212,2.3637575580516605,
72005.1,27.70000000001164,0.12,0.69,0.65,-0.26,0.59,0.18,42.099179326918005,5.347103087003446,2.354562718825032,
72005.2,27.80000000000291,0.11,0.67,0.64,-0.32,0.57,0.14,44.27901195826303,5.359337926765602,2.3179514756854913,
72005.3,27.90000000000873,0.12,0.60,0.64,-0.39,0.58,0.14,43.0731482480675,5.678514387345279,2.4044146441514234,
72005.4,28.0,0.15,0.54,0.66,-0.49,0.63,0.19,43.78070122782411,5.370344811704321,2.3185316465310146,
72005.5,28.10000000000582,0.18,0.49,0.67,-0.52,0.64,0.21,41.89428958700696,6.164557737130874,2.4790210693292583,
72005.6,28.20000000001164,0.19,0.47,0.70,-0.55,0.66,0.21,42.51505498055953,5.399519556992676,2.3198352820385915,
72005.7,28.30000000000291,0.19,0.50,0.72,-1.16,0.51,-0.38,43.62836921087012,5.384163169105891,2.349413014356542,
72005.8,28.40000000000873,0.15,0.64,0.66,-0.56,0.68,0.17,44.83009480248731,5.368340255477119,2.377893537868471,
72005.9,28.5,0.15,0.57,0.74,-0.04,-0.37,0.25,42.04506391956135,0.3975705542580442,2.2727827676427697,
72006.1,28.70000000001164,-0.19,-0.27,0.97,-0.08,-0.04,0.04,42.18312932915243,0.36821479293532405,2.2903263119737867,
72006.2,28.80000000000291,-0.22,-0.28,0.98,-0.09,-0.07,0.04,42.218911639216856,0.40998669356632833,2.3105493239275896,
72006.3,28.90000000000873,-0.23,-0.28,0.96,-0.08,-0.04,0.08,41.94957568319374,0.38271708966660384,2.276900339003496,
72006.4,29.0,-0.24,-0.28,0.96,-0.09,-0.10,0.10,40.717536762431976,0.4124298923092809,2.3334702220141232,
72006.5,29.10000000000582,-0.23,-0.29,0.94,-0.10,-0.22,0.14,41.87098995724845,0.3740958383032084,2.265996214682843,
72006.6,29.20000000001164,-0.22,-0.29,0.95,-0.10,-0.25,0.16,42.22492510354518,0.4127609756863085,2.315883030169897,
72006.7,29.30000000000291,-0.20,-0.29,0.93,-0.00,0.02,-0.05,43.58460966901046,0.3818609110307093,2.3328123244632453,
72006.8,29.40000000000873,-0.19,-0.29,0.91,-0.12,-0.24,0.18,44.059345206210224,0.39229176726233406,2.297395069730168,
72006.9,29.5,-0.17,-0.29,0.90,-0.13,-0.23,0.18,42.59871124811172,0.391851014904766,2.294582768249395,
72007.1,29.70000000001164,-0.18,-0.30,0.92,0.01,0.07,0.01,42.76930090614061,0.43225527344758335,2.294178155818317,
72007.2,29.80000000000291,-0.18,-0.30,0.93,0.01,0.05,-0.01,43.00260689772191,0.4056633597360318,2.2906336440842767,
72007.3,29.90000000000873,-0.18,-0.30,0.92,-0.01,0.00,0.01,43.01068936903941,0.4029950211357337,2.2836873197295366,
72007.4,30.0,-0.18,-0.30,0.91,0.01,0.06,0.01,42.97968822595157,0.4112265431765568,2.3044915091699343,
72007.5,30.10000000000582,-0.18,-0.30,0.92,0.01,0.07,0.01,43.017076841645114,0.3886867469672485,2.302457749711213,
72007.6,30.20000000001164,-0.18,-0.30,0.92,0.02,0.06,0.01,42.351985785792856,0.4027806595447084,2.3169709004751713,
72007.7,30.30000000000291,-0.18,-0.30,0.91,0.02,0.07,0.01,42.7877307180458,0.36512297533176974,2.3139260746565418,
72007.8,30.40000000000873,-0.18,-0.30,0.92,0.01,0.08,0.02,43.011389189376345,0.3900287928012205,2.303201670558635,
72008.5,31.10000000000582,-0.19,-0.29,0.92,-0.01,0.00,0.00,41.295056604877054,0.40539455145136916,2.2799181312670123,
72008.6,31.20000000001164,-0.19,-0.30,0.92,-0.01,0.01,-0.00,42.44315492514665,0.4058092172203496,2.3057380624755432,
72008.7,31.30000000000291,-0.19,-0.27,0.89,0.01,0.09,-0.06,41.43848814809729,0.3768015656388165,2.3117289924972217,
72008.8,31.40000000000873,-0.07,-0.27,0.92,0.00,0.00,0.01,43.09587103192138,0.4206186290805932,2.296776392723447,
72008.9,31.5,-0.17,-0.30,0.92,-0.00,0.01,0.00,42.14646485768409,0.40309840288012116,2.298055103288548,
72009.1,31.70000000001164,-0.17,-0.30,0.92,-0.00,0.02,-0.01,42.78981888253326,0.43675888484618114,2.293131644809311,
72009.2,31.80000000000291,-0.18,-0.30,0.92,-0.00,0.02,-0.00,41.91517505629674,0.3998611329524158,2.316208359990289,
72009.3,31.90000000000873,-0.18,-0.31,0.92,0.00,0.01,0.00,42.38253177902425,0.45592042735029054,2.2709944988229083,
72009.4,32.0,-0.18,-0.30,0.92,0.00,0.01,0.00,41.56677278788913,0.3956208698299232,2.3144520479624906,
72009.5,32.10000000000582,-0.18,-0.30,0.92,0.00,-0.00,0.00,40.74501810037639,0.4011922419484392,2.294830578766836,
72009.6,32.20000000001164,-0.18,-0.31,0.91,-0.00,-0.00,0.00,42.02117323445408,0.4458410753150725,2.3067957636172807,
72009.7,32.30000000000291,-0.17,-0.30,0.92,0.00,-0.01,0.01,41.07819494573733,0.4058342930748041,2.299366327561308,
72009.8,32.40000000000873,-0.17,-0.30,0.92,0.00,-0.01,0.01,42.58582275828424,0.4268394810403894,2.3182912724931493,
72009.9,32.5,-0.17,-0.31,0.92,0.00,0.00,0.01,41.93920123226002,0.4071395453393493,2.311148443808408,
72010.1,32.70000000001164,-0.18,-0.30,0.93,-0.00,-0.01,0.01,42.46769242612553,0.3975705542580442,2.2844699092456775,
72010.2,32.80000000000291,-0.18,-0.30,0.93,-0.00,-0.00,0.00,43.62983726763142,0.4346194346530614,2.321743127463834,
72010.3,32.90000000000873,-0.18,-0.30,0.92,-0.10,0.07,0.13,43.48766951677222,0.42603019919941254,2.3191356982313502,
72010.4,33.0,-0.04,-0.21,1.14,-0.00,0.01,0.00,43.30028290900649,0.4202957921782565,2.2631270488522297,
72010.5,33.10000000000582,-0.30,-0.38,1.40,-0.00,0.01,-0.00,43.10504146848719,0.40171142445000196,2.3122043700152792,
72010.6,33.20000000001164,-0.17,-0.23,1.31,0.00,0.00,-0.00,43.0794069132805,0.3984919397253977,2.3111760097228338,
72010.7,33.30000000000291,-0.14,-0.07,1.13,-0.00,-0.01,-0.00,42.69459333451954,0.005675307965967327,2.474050107342542,
72010.8,33.40000000000873,-0.17,0.19,0.86,-0.00,-0.01,0.00,42.888852864118434,0.37097233659825946,2.3013824171719306,
72010.9,33.5,-0.08,0.27,0.72,-0.00,-0.02,0.00,42.61338522107813,0.3882136885676323,2.290527511864352,
72011.1,33.70000000001164,0.10,0.36,0.66,0.84,-0.26,-0.37,44.276776079565686,5.411466109296702,2.438626807474666,
72011.2,33.80000000000291,0.10,0.36,0.64,0.41,-0.13,-0.53,43.53875859507251,5.490223808802768,2.496523437431251,
72011.3,33.90000000000873,0.09,0.43,0.68,1.03,-0.48,-0.15,43.65229203604319,5.455186510158317,2.4825283712094888,
72011.4,34.0,0.10,0.44,0.66,1.02,-0.43,-0.15,43.534938842267835,5.358204899858259,2.4009393874192186,
72011.5,34.10000000000582,0.13,0.43,0.64,0.97,-0.46,-0.25,43.35370457065925,5.4436326084458315,2.456449218667254,
72011.6,34.20000000001164,0.16,0.43,0.61,0.97,-0.46,-0.28,43.239543244581114,5.4393011214076115,2.4462210764837393,
72011.7,34.30000000000291,0.18,0.44,0.58,0.95,-0.41,-0.29,44.20012330299543,5.4009319221731324,2.4029222748790184,
72011.8,34.40000000000873,0.07,0.61,0.75,0.91,-0.32,-0.31,43.7214341027373,5.422870753108203,2.4447941678449077,
72011.9,34.5,0.10,0.63,0.69,0.88,-0.26,-0.34,44.39476207842542,5.444279260706418,2.3829366948365083,
72012.1,34.70000000001164,0.13,0.65,0.67,-0.11,-0.10,-0.04,43.60488390077424,5.420979800319657,2.363900727046941,
72012.2,34.80000000000291,0.14,0.64,0.69,-0.01,-0.21,0.06,43.535089295877185,5.409504969491872,2.3764120599990157,
72012.3,34.90000000000873,0.14,0.64,0.69,-0.14,-0.11,-0.03,42.58385022517339,5.397171118167175,2.3695236078956428,
72012.4,35.0,0.14,0.64,0.73,-0.17,-0.10,-0.01,42.06929521634514,5.416626107325264,2.359309393524764,
72012.5,35.10000000000582,0.11,0.63,0.77,-0.18,-0.09,-0.02,43.23720041815844,5.366330792250311,2.432322312166556,
72012.6,35.20000000001164,0.10,0.64,0.80,-0.16,-0.12,-0.03,42.13752009788901,5.421124367227865,2.355331443259185,
72012.7,35.30000000000291,0.10,0.64,0.81,-0.15,-0.14,-0.04,42.50427155004542,5.428273160749865,2.346754359811605,
72012.8,35.40000000000873,0.10,0.65,0.66,-0.13,-0.19,-0.05,43.54320727736991,5.35446253839896,2.4425313900645556,
72012.9,35.5,0.12,0.65,0.67,-0.10,-0.24,-0.06,42.88926322519425,5.399513190526129,2.3745895904750873,
72013.1,35.70000000001164,0.06,0.48,0.74,-1.28,0.44,-0.22,43.42590240858559,5.532427980513011,2.429385784514397,
72013.2,35.80000000000291,0.05,0.46,0.78,-1.33,0.42,-0.22,42.864785080529686,5.980481209337048,2.4780678023906484,
72013.3,35.90000000000873,0.16,0.20,0.98,-1.39,0.43,-0.24,41.94702015638298,0.03310583222270954,2.509800398389507,
72013.4,36.0,-0.13,-0.04,1.17,-0.93,0.31,-0.31,42.3153057415399,0.26890954872843376,2.447684691835695,
72013.5,36.10000000000582,0.16,0.19,0.89,-0.64,0.46,-0.10,42.60568271956219,0.34760685975590194,2.4049768628302153,
72013.6,36.20000000001164,0.08,0.31,0.85,-1.31,0.62,-0.32,43.155487484212244,0.47018821340568695,2.347855141723975,
72013.7,36.30000000000291,0.01,0.41,0.88,-1.39,0.65,-0.50,43.42590240858559,5.532427980513011,2.429385784514397,
72013.8,36.40000000000873,-0.00,0.41,0.91,-1.41,0.58,-0.52,43.046527153767,5.649241586857672,2.4637455222175153,
72013.9,36.5,-0.00,0.35,1.00,-1.47,0.48,-0.54,42.29347703842757,0.4482064925438768,2.319218161872669,
72014.1,36.70000000001164,-0.16,-0.28,0.95,-0.05,0.03,-0.00,42.46226206880646,0.4653752202967224,2.3209919190939905,
72014.2,36.80000000000291,-0.17,-0.29,0.94,-0.05,0.06,-0.01,42.02412402418401,0.44119564608072176,2.309303511667843,
72014.3,36.90000000000873,-0.18,-0.29,0.93,0.02,0.02,0.03,42.193430768308,0.41092758818934505,2.320126753264525,
72014.4,37.0,-0.18,-0.29,0.91,-0.02,-0.10,0.03,41.915473276583675,0.4358972473354063,2.3223883206963842,
72014.5,37.10000000000582,-0.19,-0.30,0.90,-0.02,-0.11,0.00,42.29011468416703,0.39701189656592595,2.324792329843266,
72014.6,37.20000000001164,-0.16,-0.28,0.96,-0.04,0.09,-0.01,41.070980022395375,0.3994673631936333,2.3306391684844545,
72014.7,37.30000000000291,-0.18,-0.32,0.90,-0.04,-0.03,0.02,42.14997746144119,0.4240888791571683,2.327592768339988,
72014.8,37.40000000000873,-0.17,-0.33,0.90,-0.05,0.01,0.01,41.27040222726209,0.41588225677377194,2.3154611710511843,
72014.9,37.5,-0.16,-0.33,0.91,-0.03,-0.09,0.04,42.08932881384544,0.4203983824159391,2.319831776896616,
72015.1,37.70000000001164,-0.18,-0.31,0.92,-0.02,-0.07,-0.01,42.81470892111729,0.41812867241479923,2.3029350910319732,
72015.2,37.80000000000291,-0.18,-0.31,0.92,-0.00,-0.01,-0.05,42.69002108221546,0.4497309107038152,2.2778102249529733,
72015.3,37.90000000000873,-0.17,-0.30,0.91,-0.01,0.03,0.01,42.238397223379586,0.3940371047120868,2.3311577155518677,
72015.4,38.0,-0.18,-0.31,0.92,-0.01,0.02,0.02,42.65924987619918,0.4584393227617342,2.2707398331813256,
72015.5,38.10000000000582,-0.16,-0.29,0.92,-0.02,-0.03,0.01,43.13630721329771,0.45552118395695385,2.3273628981313226,
72015.6,38.20000000001164,-0.16,-0.30,0.92,-0.07,0.00,0.00,42.60826797700184,0.4729851983890612,2.3057154255717847,
72015.7,38.30000000000291,-0.17,-0.30,0.91,0.03,-0.06,0.01,42.33694013506408,0.399944053157161,2.3182652283648286,
72015.8,38.40000000000873,-0.16,-0.31,0.92,-0.02,-0.05,-0.00,42.39013328594285,0.40425416681782705,2.3251655764622776,
72015.9,38.5,-0.17,-0.30,0.92,-0.03,-0.07,-0.01,43.253407958217586,0.44330568510332086,2.3203793402845125,
72016.1,38.70000000001164,-0.17,-0.31,0.92,0.01,0.09,0.04,41.34684752190909,0.4802305800154687,2.331973843724086,
72016.2,38.80000000000291,-0.16,-0.31,0.92,0.01,0.07,0.04,41.634650232708815,0.4577609956131136,2.3234324997680718,
72016.3,38.90000000000873,-0.16,-0.31,0.92,0.01,0.05,0.04,42.036747019720735,0.4180606205897938,2.311928563524044,
72016.4,39.0,-0.17,-0.31,0.91,0.01,0.04,0.04,41.31260461408842,0.47907940757980005,2.33410295406264,
72016.5,39.10000000000582,-0.15,-0.30,0.93,0.01,0.04,0.04,42.13993236824188,0.4268394810403894,2.3068045250711866,
72016.6,39.20000000001164,-0.17,-0.31,0.91,0.01,0.10,0.03,42.57707364298303,0.4387756779342071,2.3284575167213433,
72016.7,39.30000000000291,-0.14,-0.29,0.93,0.01,0.10,0.03,42.13721158311262,0.4070488148637621,2.3344293915250747,
72016.8,39.40000000000873,-0.14,-0.30,0.93,0.01,0.04,0.03,42.17142753097173,0.39231880951676495,2.3545291130664476,
72016.9,39.5,-0.14,-0.29,0.93,0.01,0.04,0.03,41.86974325213853,0.4477052654238361,2.302988832992602,
72017.1,39.70000000001164,-0.16,-0.30,0.91,0.01,0.04,0.00,42.33323162717441,0.4334457515950872,2.321572351577621,
72017.2,39.80000000000291,-0.17,-0.30,0.91,0.01,0.03,0.01,43.29613146691053,0.4218420980615404,2.3100441315607614,
72017.3,39.90000000000873,-0.17,-0.30,0.92,0.00,0.03,0.01,41.63720091456677,0.4449193098794112,2.3339567754855444,
72017.4,40.0,-0.17,-0.30,0.92,0.02,0.04,0.00,42.085518887142165,0.4285410826839682,2.3238167717741174,
72017.5,40.10000000000582,-0.17,-0.30,0.92,0.02,0.04,0.00,42.25089229826987,0.43243132326639144,2.3633869837285477,
72017.6,40.20000000001164,-0.17,-0.29,0.92,0.02,0.04,0.01,42.02226790643266,0.4248036214593118,2.332766654189667,
72017.7,40.30000000000291,-0.18,-0.29,0.92,0.02,0.04,0.01,41.965229655037035,0.45340468938710077,2.2948851924164084,
72017.8,40.40000000000873,-0.17,-0.29,0.92,0.01,0.04,0.01,42.108005177163164,0.4042510071852923,2.32331638165466,
72017.9,40.5,-0.17,-0.29,0.93,0.01,0.04,0.01,42.147029551321886,0.42402078674687926,2.3332216534536756,
72018.1,40.70000000001164,-0.10,-0.22,1.35,1.82,-1.00,0.26,41.913613540232966,0.31002336865651375,2.4676528731755356,
72018.2,40.80000000000291,-0.10,-0.21,1.33,1.20,-0.77,0.24,42.03904970381705,0.28335980544012895,2.4811845068983978,
72018.3,40.90000000000873,-0.10,-0.19,1.29,1.33,-0.67,0.26,43.32601297142399,5.699645344372501,2.582106202678602,
72018.4,41.0,-0.08,-0.16,1.28,1.61,-0.70,0.34,41.81274207702719,0.28712403440707596,2.4611193498445454,
72018.5,41.10000000000582,-0.07,-0.15,1.28,0.85,-0.49,-0.55,41.81341650714516,5.3308636532879685,2.4441705781118754,
72018.6,41.20000000001164,-0.06,-0.14,1.27,0.61,0.21,-0.55,44.196572265278675,5.29488827105051,2.418946351050171,
72018.7,41.30000000000291,-0.10,-0.23,1.35,1.66,-0.79,0.33,41.665785724020616,0.27892475659520416,2.4563355670888267,
72018.8,41.40000000000873,-0.02,-0.07,1.25,1.70,-0.86,0.32,41.152578291037855,0.17508975489006864,2.489551590338581,
72018.9,41.5,-0.02,-0.04,1.25,1.80,-0.99,0.26,43.45587302080123,5.364017238379883,2.3944267457096187,
72019.1,41.70000000001164,0.19,0.61,0.70,-0.29,-0.12,-0.25,43.61119581025037,5.3845481727506135,2.413039797831391,
72019.2,41.80000000000291,0.08,0.55,0.81,0.03,0.09,-0.13,42.78291364551975,5.36399053020246,2.4235643723669025,
72019.3,41.90000000000873,0.03,0.53,0.87,-0.27,-0.12,-0.26,43.71663527766061,5.3925146102127215,2.4161830823291544,
72019.4,42.0,0.01,0.52,0.91,-0.25,-0.12,-0.29,42.80173594610387,5.369241112571482,2.446445574474149,
72019.5,42.10000000000582,-0.00,0.51,0.89,-0.02,0.02,-0.07,43.1231040162927,5.371066596164759,2.4407878306074586,
72019.6,42.20000000001164,0.06,0.56,0.88,0.01,0.06,-0.02,43.09248774438533,5.4206222831127535,2.359778411239941,
72019.7,42.30000000000291,0.11,0.63,0.84,0.06,0.09,0.05,43.381181403922135,5.372247093967757,2.4362509206780447,
72019.8,42.40000000000873,0.13,0.65,0.78,0.19,0.08,0.08,43.58863728083272,5.382919875694949,2.4156912039143523,
72019.9,42.5,0.19,0.60,0.73,-0.15,0.12,0.02,42.829907774824825,5.403269908590166,2.412091675484595,
72020.1,42.70000000001164,0.10,0.58,0.71,0.06,-0.02,0.04,43.028053639457134,5.350097405633095,2.434062213737197,
72020.2,42.80000000000291,0.10,0.58,0.70,0.09,-0.03,0.03,43.39723263066436,5.40942885035732,2.411989873517948,
72020.3,42.90000000000873,0.11,0.60,0.70,0.13,-0.03,0.07,42.69167249007703,5.293794594168138,2.4210299980625902,
72020.4,43.0,0.13,0.62,0.69,0.14,-0.04,0.10,42.59361806656016,5.394928868417264,2.4169007756357295,
72020.5,43.10000000000582,0.15,0.62,0.70,0.14,-0.02,0.12,42.50038470414121,5.380737214095371,2.4193818894826915,
72020.6,43.20000000001164,0.13,0.61,0.68,0.13,-0.00,0.13,41.86539024062716,5.455186510158317,2.449025600711512,
72020.7,43.30000000000291,0.12,0.63,0.70,0.11,0.01,0.13,41.52637475147572,5.71925058556522,2.445672394381754,
72020.8,43.40000000000873,0.13,0.57,0.72,0.08,-0.01,0.13,42.73134797780197,5.349413029701364,2.4335398341166505,
72020.9,43.5,0.11,0.58,0.72,0.07,-0.04,0.13,41.90914935906001,0.08114014305501291,2.4293150634657463,
72021.1,43.70000000001164,-0.22,-0.23,1.01,-0.30,0.29,-0.04,42.583946505696254,0.32464785286760606,2.377294558538562,
72021.2,43.80000000000291,-0.18,-0.22,1.03,-0.35,0.11,-0.04,41.469104162014396,0.37324066054355187,2.318263305943194,
72021.3,43.90000000000873,-0.20,-0.32,0.97,-0.85,0.19,-0.26,41.887309534034294,0.31695860675862153,2.375670398357482,
72021.4,44.0,-0.18,-0.15,1.32,-0.60,0.48,-0.10,41.78585167254582,0.37486965682147494,2.283088693982824,
72021.5,44.10000000000582,-0.18,-0.22,1.28,-0.56,0.44,-0.11,41.507554734048114,0.32108447989478944,2.3852306082581514,
72021.6,44.20000000001164,-0.15,-0.14,1.13,-0.52,0.40,-0.14,41.527646213095196,0.31506425702037916,2.373561514509732,
72021.7,44.30000000000291,-0.19,-0.18,1.09,-0.45,0.34,-0.16,41.6587013719823,0.43901716692610754,2.280652363880793,
72021.8,44.40000000000873,-0.20,-0.20,1.08,-0.42,0.34,-0.15,41.01126186793086,0.4041434701364122,2.262530332478851,
72021.9,44.5,-0.22,-0.23,1.04,-0.35,0.32,-0.10,40.852052580011204,0.35438940759968307,2.329316328327632,
72022.1,44.70000000001164,-0.21,-0.29,0.91,-0.00,0.06,-0.00,42.04086821177698,0.395725990103631,2.2731787534263637,
72022.2,44.80000000000291,-0.22,-0.29,0.90,-0.00,0.06,-0.00,42.04506391956135,0.3975705542580442,2.2727827676427697,
72022.3,44.90000000000873,-0.21,-0.29,0.91,0.01,0.05,-0.00,40.919908357668646,0.4295214603174787,2.2646986761057457,
72022.4,45.0,-0.21,-0.29,0.91,0.00,0.05,-0.01,40.259633629728924,0.4143764238188311,2.267683772936244,
72022.5,45.10000000000582,-0.23,-0.30,0.91,0.00,0.03,-0.01,42.67839734572984,0.4141262463426386,2.2685260278352355,
72022.6,45.20000000001164,-0.21,-0.29,0.92,-0.01,-0.04,-0.00,42.25890793667058,0.3975705542580442,2.2787454540540617,
72022.7,45.30000000000291,-0.21,-0.28,0.92,-0.01,0.05,0.00,42.21843909952143,0.3906577270785628,2.2742741208115373,
72022.8,45.40000000000873,-0.21,-0.29,0.91,-0.00,0.06,0.00,41.989354603280105,0.4350997040310361,2.2590132614935787,
72022.9,45.5,-0.21,-0.29,0.91,-0.01,-0.00,-0.02,42.58999178210768,0.37334700173801966,2.266897041577846,
72023.1,45.70000000001164,-0.21,-0.30,0.91,-0.00,-0.01,0.00,40.66186665661083,0.4231551899254744,2.301913572714129,
72023.2,45.80000000000291,-0.22,-0.31,0.92,-0.00,-0.00,0.00,42.578786971918305,0.39229176726233406,2.25736070720813,
72023.3,45.90000000000873,-0.21,-0.30,0.92,-0.00,-0.00,0.00,41.90762937700008,0.392153105047757,2.259072229799852,
72023.4,46.0,-0.21,-0.30,0.91,-0.00,0.00,0.00,41.28217654145673,0.43030347461545954,2.2471274615747907,
72023.5,46.10000000000582,-0.21,-0.29,0.91,-0.00,0.00,0.01,41.52803992485078,0.387766093921147,2.2628543328809796,
72023.6,46.20000000001164,-0.21,-0.29,0.91,-0.00,-0.01,-0.01,41.497501129586105,0.44584741464554656,2.2644042166734364,
72023.7,46.30000000000291,-0.21,-0.29,0.92,-0.00,-0.01,-0.01,42.16351384787563,0.39229176726233406,2.2452536710305115,
72023.8,46.40000000000873,-0.21,-0.30,0.91,-0.00,-0.01,-0.01,40.66186665661083,0.4231551899254744,2.301913572714129,
72023.9,46.5,-0.21,-0.29,0.91,-0.00,-0.01,-0.00,40.936431207422075,0.39761066110030857,2.2473283984395445,
72024.1,46.70000000001164,-0.23,-0.30,0.90,0.00,0.00,-0.00,41.040469051900466,0.44035587709362156,2.2813888364494255,
72024.2,46.80000000000291,-0.22,-0.30,0.91,-0.01,-0.03,0.01,42.48211623730626,0.4311994066095864,2.254056218521338,
72024.3,46.90000000000873,-0.21,-0.30,0.91,-0.01,-0.04,0.01,42.41329744313686,0.41758045415080747,2.245676867561282,
72024.4,47.0,-0.22,-0.30,0.91,-0.01,0.01,-0.00,42.395061033096766,0.4182243295792291,2.2460211367748726,
72024.5,47.10000000000582,-0.21,-0.30,0.91,-0.01,-0.04,0.01,43.2539547324866,0.42630673516210615,2.2541372920795792,
72024.6,47.20000000001164,-0.21,-0.30,0.91,-0.01,-0.04,0.01,41.74356956466469,0.43719138770175775,2.263553530531555,
72024.7,47.30000000000291,-0.23,-0.30,0.91,-0.01,-0.03,0.01,41.74356956466469,0.43719138770175775,2.263553530531555,
72024.8,47.40000000000873,-0.21,-0.30,0.91,0.00,0.02,-0.00,40.6667542348784,0.42250688969358496,2.2542490964655,
72024.9,47.5,-0.21,-0.30,0.90,0.00,0.01,-0.00,41.381079009615014,0.4605110353119087,2.2813195248167273,
72025.1,47.70000000001164,-0.22,-0.30,0.90,0.01,0.03,0.00,41.36187737518693,0.425194194653027,2.266188481106785,
72025.2,47.80000000000291,-0.22,-0.30,0.90,0.01,-0.00,0.00,41.086464924595305,0.4417163676802217,2.2559755616897643,
72025.3,47.90000000000873,-0.22,-0.30,0.90,0.01,-0.02,0.00,42.42628194881093,0.4388479800881504,2.263675389224203,
72025.4,48.0,-0.22,-0.30,0.90,0.00,-0.00,0.00,42.711556984029514,0.4292062129253795,2.244587221998888,
72025.5,48.10000000000582,-0.23,-0.30,0.90,0.01,-0.02,-0.00,40.51987166810872,0.43719138770175775,2.226323773219611,
72025.6,48.20000000001164,-0.21,-0.30,0.90,0.01,-0.01,-0.00,42.54533346913619,0.4487843915870565,2.2613545684330623,
72025.7,48.30000000000291,-0.22,-0.30,0.90,0.00,0.00,-0.00,41.57893457028451,0.444244767113394,2.261840264899857,
72025.8,48.40000000000873,-0.22,-0.30,0.92,0.00,0.01,-0.00,42.14657281440568,0.4337132028830634,2.2355874643042912,
72025.9,48.5,-0.21,-0.30,0.91,0.02,0.14,-0.02,41.57748669652845,0.403788890608739,2.2578181693358936,
72026.1,48.70000000001164,-0.20,-0.29,1.01,0.11,-0.60,0.05,41.7810614992008,0.4405342457529391,2.2275685096891698,
72026.2,48.80000000000291,-0.16,-0.28,1.00,-0.04,-0.19,0.09,41.55629194237619,0.4325802599913279,2.2476959976820075,
72026.3,48.90000000000873,-0.19,-0.28,1.02,-0.04,-0.19,0.10,43.32727316598634,0.32453296235268186,2.4263768421012957,
72026.4,49.0,-0.15,-0.21,1.05,-0.03,-0.18,0.11,41.23214765204452,0.41965086213510383,2.2789906180672292,
72026.5,49.10000000000582,-0.16,-0.21,1.06,-0.03,-0.15,0.12,41.396160449974104,6.120014866551361,2.6841494596808477,
72026.6,49.20000000001164,-0.18,-0.19,1.07,-0.07,-0.31,0.05,43.43015887606216,5.6334336967106005,2.625334113121778,
72026.7,49.30000000000291,-0.13,-0.20,1.09,-0.07,-0.38,0.05,42.03464285562564,0.4584393227617342,2.252906429808094,
72026.8,49.40000000000873,-0.10,-0.22,1.20,-0.01,-0.54,0.06,43.348944623831386,5.293724321542468,2.4802645120814355,
72026.9,49.5,-0.08,-0.25,1.25,0.17,0.39,-0.02,43.866198832358386,5.236353044503787,2.384714871388451,
72027.1,49.70000000001164,0.26,0.57,0.54,-0.31,0.02,-0.24,43.45211272193793,5.326957359225789,2.3638631646545107,
72027.2,49.80000000000291,0.26,0.57,0.55,-0.10,-0.08,-0.09,43.17978809582094,5.359874679247028,2.4016985863743225,
72027.3,49.90000000000873,0.29,0.63,0.57,-0.08,-0.08,-0.08,43.8013310300041,5.387700861741181,2.467104169403406,
72027.4,50.0,0.28,0.62,0.58,-0.09,-0.09,-0.08,43.49847813429798,5.319703262291419,2.3569077653385357,
72027.5,50.10000000000582,0.28,0.61,0.59,-0.23,0.00,-0.13,43.79971917718195,5.2933183967291555,2.381009105326869,
72027.6,50.20000000001164,0.28,0.59,0.61,-0.25,0.03,-0.16,43.73064028801774,5.420659253951394,2.3707818468650252,
72027.7,50.30000000000291,0.27,0.59,0.61,-0.27,0.06,-0.19,44.028111474375095,5.3187849196597,2.377540846236493,
72027.8,50.40000000000873,0.25,0.61,0.63,-0.29,0.06,-0.21,44.36178310212519,5.3521285140794745,2.372960202802265,
72027.9,50.5,0.22,0.62,0.65,-0.30,0.03,-0.23,44.45657319227383,5.36898473161794,2.364963794686645,
72028.1,50.70000000001164,0.11,0.65,0.76,-0.11,-0.08,-0.11,43.91810674425754,5.444279260706418,2.3725980694409925,
72028.2,50.80000000000291,0.11,0.65,0.75,-0.10,-0.00,-0.11,43.38905046206934,5.459488123624649,2.3689654135002147,
72028.3,50.90000000000873,0.12,0.66,0.73,0.07,-0.07,0.36,43.18593057929863,5.4317861381492785,2.4301528905055054,
72028.4,51.0,0.13,0.66,0.74,-0.11,-0.13,-0.10,42.503470446541186,5.3925146102127215,2.3905813218855054,
72028.5,51.10000000000582,0.08,0.67,0.71,-0.11,-0.10,-0.11,43.05188265337534,5.394558267085155,2.382079812570487,
72028.6,51.20000000001164,0.07,0.67,0.68,-0.09,0.08,-0.11,43.92951399685637,5.412732390058872,2.3779091361852744,
72028.7,51.30000000000291,0.09,0.66,0.67,-0.13,0.01,-0.07,44.33352004973212,5.399519556992676,2.3629631344573143,
72028.8,51.40000000000873,0.09,0.66,0.65,-0.16,-0.06,-0.05,44.718951239938534,5.435720074890211,2.3647357254366934,
72028.9,51.5,0.10,0.65,0.65,-0.20,-0.13,-0.04,42.71564584552129,6.023437787998812,2.498383583805214,
72029.1,51.70000000001164,-0.13,-0.10,1.17,-1.38,0.22,-0.47,42.360469780209,0.043841002261029244,2.42457483642343,
72029.2,51.80000000000291,-0.13,-0.09,1.18,-1.61,0.34,-0.45,41.870081203647075,0.10072558558124528,2.401247778522254,
72029.3,51.90000000000873,-0.14,-0.06,1.18,-1.57,0.30,-0.38,41.75383455444542,0.46989843614930166,2.313260486841052,
72029.4,52.0,-0.14,-0.09,1.18,-1.52,0.27,-0.38,40.93793106643275,0.11813611152201206,2.4302533716951404,
72029.5,52.10000000000582,-0.11,-0.01,1.17,0.03,0.27,0.02,40.38995667242044,0.12978606678367685,2.448463843900295,
72029.6,52.20000000001164,-0.13,-0.09,1.17,-1.51,0.25,-0.39,42.3669659050539,0.49051333014226833,2.256270792248479,
72029.7,52.30000000000291,-0.11,-0.06,1.15,-1.50,0.23,-0.40,41.93939079195118,0.4952956758319708,2.2547523730842425,
72029.8,52.40000000000873,-0.13,-0.10,1.13,-1.42,0.24,-0.48,41.85405356712776,0.23227008273461294,2.419200181098369,
72029.9,52.5,-0.15,-0.13,1.10,-1.39,0.24,-0.49,41.64359854767597,0.4494814130313119,2.292741568423749,
72030.1,52.70000000001164,-0.21,-0.30,0.92,-0.03,-0.01,0.04,41.75393274890403,0.45340468938710077,2.2891440714630646,
72030.2,52.80000000000291,-0.20,-0.30,0.92,-0.01,0.16,0.02,41.47402681196992,0.41579722540527886,2.236043710588026,
72030.3,52.90000000000873,-0.21,-0.30,0.93,-0.03,0.01,0.04,42.85643592274094,0.419082540611098,2.2580850691570236,
72030.4,53.0,-0.21,-0.30,0.91,-0.03,0.03,0.04,41.78883224020504,0.4552679168766966,2.268573727168411,
72030.5,53.10000000000582,-0.22,-0.30,0.91,-0.03,0.05,0.04,42.984607710202496,0.42071362348732627,2.2499462790109734,
72030.6,53.20000000001164,-0.23,-0.30,0.90,-0.02,0.07,0.03,41.49467676702639,0.41931463786031037,2.2381054377177576,
72030.7,53.30000000000291,-0.24,-0.30,0.90,-0.00,0.24,0.00,42.743847510489736,0.4451114553582288,2.239503682665105,
72030.8,53.40000000000873,-0.25,-0.31,0.90,0.01,0.19,-0.02,42.52266454492239,0.44454760762518564,2.2349300056771915,
72030.9,53.5,-0.25,-0.30,0.89,0.01,0.15,-0.01,42.21325502730156,0.4586905220586748,2.229547745431159,
72031.1,53.70000000001164,-0.22,-0.30,0.91,0.00,-0.00,-0.01,41.65396739807626,0.4331279160852797,2.2281021086229087,
72031.2,53.80000000000291,-0.22,-0.30,0.90,0.00,0.00,-0.01,42.392770610093415,0.4405342457529391,2.246064403313137,
72031.3,53.90000000000873,-0.23,-0.30,0.90,-0.00,0.01,-0.01,41.67906548856392,0.45336019213928497,2.259854863845269,
72031.4,54.0,-0.23,-0.30,0.90,-0.00,0.01,-0.01,42.40761370320193,0.4267279451606919,2.251536148943203,
72031.5,54.10000000000582,-0.24,-0.29,0.91,-0.00,0.00,-0.00,42.44590675200614,0.4057335031891913,2.259929161572471,
72031.6,54.20000000001164,-0.22,-0.30,0.90,-0.01,-0.01,0.01,41.35811165902041,0.39229176726233406,2.2205118600926963,
72031.7,54.30000000000291,-0.22,-0.30,0.90,0.00,-0.02,-0.01,43.24517660965209,0.41903319698820457,2.2409542089420507,
72031.8,54.40000000000873,-0.24,-0.30,0.90,0.00,-0.01,-0.01,43.54557842077654,0.4238773311903951,2.234332281321557,
72031.9,54.5,-0.24,-0.30,0.91,0.00,-0.01,-0.01,41.804426799084325,0.4316124472466354,2.2172113178794604,
72032.1,54.70000000001164,-0.22,-0.31,0.91,-0.01,0.02,-0.00,42.171314895317174,0.42178369428725576,2.2502771322120445,
72032.2,54.80000000000291,-0.23,-0.31,0.90,-0.01,0.02,0.00,40.809622639764754,0.4630812774742086,2.2564563361718273,
72032.3,54.90000000000873,-0.23,-0.30,0.91,-0.01,0.03,0.00,41.1034463275283,0.4613835687203515,2.2644651360023644,
72032.4,55.0,-0.22,-0.30,0.91,-0.01,0.03,0.00,41.7487448913138,0.4448256606457286,2.2381897171064056,
72032.5,55.10000000000582,-0.23,-0.31,0.90,0.01,0.01,-0.01,42.03044253871234,0.45587940368014307,2.2884496081825807,
72032.6,55.20000000001164,-0.22,-0.30,0.91,-0.01,0.03,-0.00,41.56492511721873,0.4539901901734447,2.2819573334686574,
72032.7,55.30000000000291,-0.22,-0.30,0.90,-0.00,0.03,0.00,42.98410636502753,0.41985039429321935,2.2628800296668237,
72032.8,55.40000000000873,-0.22,-0.31,0.91,-0.01,0.01,0.00,40.839183390464605,0.45075434068365805,2.2714584412441328,
72032.9,55.5,-0.22,-0.30,0.90,-0.00,0.01,-0.00,41.73594733560028,0.430958689293539,2.256873264653053,
72033.1,55.70000000001164,-0.23,-0.31,0.90,-0.00,0.02,-0.00,42.26591534558314,0.47641518469583904,2.2484704081495406,
72033.2,55.80000000000291,-0.23,-0.30,0.90,-0.00,0.02,-0.00,43.069009740183255,0.42437242303317235,2.2675883103213734,
72033.3,55.90000000000873,-0.22,-0.31,0.91,-0.00,-0.01,-0.00,41.74262330041082,0.4588498390968581,2.244420741051157,
72033.4,56.0,-0.22,-0.30,0.91,-0.01,-0.00,-0.00,41.914165863106476,0.4562620130793527,2.269491679311898,
72033.5,56.10000000000582,-0.22,-0.30,0.91,-0.00,-0.01,-0.00,41.30375043503919,0.4493294356720854,2.2365085785697274,
72033.6,56.20000000001164,-0.22,-0.31,0.91,0.00,-0.01,0.00,41.29366416291971,0.465194071988433,2.262211621737686,
72033.7,56.30000000000291,-0.22,-0.30,0.91,-0.00,-0.00,0.00,41.49480087914629,0.4594780709675435,2.2541592792969753,
72033.8,56.40000000000873,-0.23,-0.30,0.91,-0.00,0.01,0.00,41.383891793788564,0.4209480828992616,2.255407245307536,
72033.9,56.5,-0.22,-0.30,0.90,-0.00,0.01,0.00,42.297520021864166,0.43849651809907336,2.223237266517634,
72034.1,56.70000000001164,-0.24,-0.31,0.92,0.01,0.01,0.00,40.72263498350764,0.44871283108507937,2.2477648452902432,
72034.2,56.80000000000291,-0.22,-0.31,0.90,0.01,0.01,0.00,42.91201463459855,0.44951665193905677,2.2558181876510455,
72034.3,56.90000000000873,-0.22,-0.31,0.91,0.01,-0.01,0.01,42.89340625317602,0.4719379836102089,2.2270046861574513,
72034.4,57.0,-0.23,-0.31,0.91,0.01,-0.01,0.01,41.517296395598784,0.3448093839168194,2.288687968346575,
72034.5,57.10000000000582,-0.23,-0.31,0.91,0.01,-0.01,0.01,41.51567776153968,0.18080735274136236,2.4273936696698515,
72034.6,57.20000000001164,-0.22,-0.31,0.90,1.88,-1.07,0.18,41.09250296586958,6.261294067960866,2.5251909583999197,
72034.7,57.30000000000291,-0.22,-0.31,0.91,1.75,-0.46,0.07,42.64106119692614,0.47150154761494706,2.2342458965100294,
72034.8,57.40000000000873,-0.23,-0.31,0.91,0.01,-0.01,0.01,41.212733469159744,0.46779221868321935,2.2793941112984255,
72034.9,57.5,-0.22,-0.31,0.91,0.01,0.01,0.00,41.021761298120786,0.4606612697555831,2.268028435515557,
72035.1,57.70000000001164,0.20,0.55,0.52,0.50,0.12,-0.38,41.86282001967856,5.350652249693055,2.4251243738827717,
72035.2,57.80000000000291,0.17,0.54,0.52,0.48,0.10,-0.38,42.297768262640055,5.317524794696127,2.4230386207827115,
72035.3,57.90000000000873,0.17,0.53,0.52,0.47,0.08,-0.38,41.98822930298442,5.356734624130965,2.3981734115871562,
72035.4,58.0,0.15,0.51,0.52,0.42,-0.06,-0.39,43.357506847142396,5.351555452778567,2.406801380444361,
72035.5,58.10000000000582,0.16,0.52,0.51,0.39,-0.07,-0.39,42.946279233479586,5.318253995450029,2.4424198231301855,
72035.6,58.20000000001164,0.22,0.55,0.53,0.38,-0.08,-0.39,43.57401175012463,5.385521873366629,2.378798109066411,
72035.7,58.30000000000291,0.17,0.54,0.51,0.08,0.21,0.02,43.84464049345142,5.368889224962835,2.3782819888490376,
72035.8,58.40000000000873,-0.00,0.68,0.61,-0.01,0.43,-0.00,42.42549587217573,5.411622281745794,2.3592206108430873,
72035.9,58.5,0.21,0.55,0.53,0.54,0.12,-0.36,43.109250747374396,5.312500866980111,2.4293744420477714,
72036.1,58.70000000001164,0.16,0.66,0.77,-0.16,-0.16,-0.07,41.74589440891164,5.356734624130965,2.3928232321726193,
72036.2,58.80000000000291,0.14,0.63,0.75,-0.22,-0.11,-0.03,42.56097390802988,5.36183145369933,2.414933743831434,
72036.3,58.90000000000873,0.17,0.61,0.74,-0.24,-0.13,-0.00,43.134712239680006,5.346021988454435,2.41742134121485,
72036.4,59.0,0.18,0.59,0.75,-0.25,-0.15,0.01,44.004052086143155,5.362909528360376,2.4541689598719802,
72036.5,59.10000000000582,0.19,0.58,0.75,-0.23,-0.19,0.00,43.05882604066209,5.357122508446724,2.4461760378131583,
72036.6,59.20000000001164,0.19,0.55,0.70,-0.20,-0.19,-0.01,42.0064780718403,5.76031037910001,2.5349030690880334,
72036.7,59.30000000000291,0.16,0.52,0.73,-1.95,0.47,-0.53,42.06749933143162,5.350898938610117,2.436992824381131,
72036.8,59.40000000000873,0.15,0.66,0.76,-1.74,0.84,-0.37,41.23582059326576,0.1964503805472229,2.4933109133142337,
72036.9,59.5,0.08,0.46,0.67,-0.17,-0.13,-0.07,41.03878531340809,0.28187089767536194,2.3881093571195153,
72037.1,59.70000000001164,-0.33,-0.39,1.21,-0.81,0.46,0.18,42.73043996965161,0.40332882553352856,2.3269960545793222,
72037.2,59.80000000000291,-0.14,-0.29,0.76,-0.86,0.01,0.05,42.38720325758707,0.4071395453393493,2.322643499127241,
72037.3,59.90000000000873,-0.23,-0.23,1.01,-0.86,0.01,0.02,40.94216042174619,0.425194194653027,2.2538109565025715,
72037.4,60.0,-0.22,-0.22,0.99,-0.85,0.10,-0.04,40.8453779514892,0.4335647807235862,2.3100822877472296,
72037.5,60.10000000000582,-0.16,-0.15,1.27,-0.79,0.30,-0.12,39.92540669799119,0.4501044190244521,2.301971969830384,
72037.6,60.20000000001164,-0.27,-0.19,1.31,-0.66,0.42,-0.15,43.03292809001033,0.44573947784749,2.2598307644093723,
72037.7,60.30000000000291,-0.38,-0.35,1.42,-0.40,0.30,-0.05,40.81643909015092,0.43598497413499276,2.2773918979718397,
72037.8,60.40000000000873,-0.38,-0.38,1.39,-0.31,0.20,0.01,41.07350240726982,0.4071395453393493,2.2877808783692033,
72037.9,60.5,-0.33,-0.41,1.29,0.01,-0.00,0.01,41.36136119616955,0.4058092172203496,2.2763182851312935,
72038.1,60.70000000001164,-0.20,-0.29,0.91,0.00,0.09,-0.00,42.33629884626194,0.4493294356720854,2.266979405461794,
72038.2,60.80000000000291,-0.20,-0.29,0.91,-0.00,0.04,0.03,42.213368735508425,0.42852396846216095,2.254351540709204,
72038.3,60.90000000000873,-0.20,-0.30,0.92,-0.00,0.04,0.03,41.81838949553175,0.43938942585303203,2.28083925814557,
72038.4,61.0,-0.20,-0.30,0.91,-0.00,0.05,0.04,41.71999161073741,0.4417163676802217,2.274350582645158,
72038.5,61.10000000000582,-0.18,-0.30,0.91,-0.00,0.04,0.03,41.61270358916853,0.44848631591655636,2.3020790106126254,
72038.6,61.20000000001164,-0.18,-0.30,0.92,-0.00,0.06,0.02,41.86653436815615,0.4456403415924083,2.270135639572269,
72038.7,61.30000000000291,-0.18,-0.30,0.91,0.00,0.07,0.01,41.8262035092835,0.4492998077531743,2.254799229552592,
72038.8,61.40000000000873,-0.19,-0.30,0.91,0.00,0.09,0.00,42.194201023363384,0.42746742268068766,2.261774598701705,
72038.9,61.5,-0.20,-0.30,0.91,-0.00,0.02,0.00,42.47768590683819,0.456970139429074,2.2587033548342177,
72039.1,61.70000000001164,-0.21,-0.30,0.91,-0.00,0.01,-0.00,42.28538636455862,0.4236024818452797,2.272931912631523,
72039.3,61.90000000000873,-0.21,-0.30,0.91,0.00,0.01,-0.00,40.26206278868484,0.4820257808419346,2.256992544510706,
72039.5,62.10000000000582,-0.21,-0.30,0.90,0.00,0.01,-0.00,41.43701847382362,0.4597646719214383,2.249700975901754,
72039.6,62.20000000001164,-0.21,-0.30,0.91,0.00,0.01,-0.00,43.30921495478763,0.42786870059870225,2.2386060948750384,
72039.7,62.30000000000291,-0.21,-0.30,0.91,0.00,0.02,-0.00,42.28538636455862,0.4236024818452797,2.272931912631523,
72040.6,63.20000000001164,-0.21,-0.30,0.90,-0.00,0.03,-0.00,42.03534227290174,0.42437242303317235,2.237663211102644,
72040.7,63.30000000000291,-0.25,-0.29,0.93,-0.08,-0.11,0.14,41.23168805663916,0.4700248967305618,2.2431408175502283,
72040.8,63.40000000000873,-0.22,-0.27,0.88,0.01,0.01,0.01,42.019369343196956,0.47001522379141697,2.2379624741935307,
72040.9,63.5,-0.21,-0.32,0.90,-0.01,-0.02,0.01,41.64434295315511,0.44561431334556906,2.2371084768863296,
72041.1,63.70000000001164,-0.22,-0.31,0.90,-0.00,0.01,-0.00,42.03923524518495,0.45133364985773267,2.277895595327636,
72041.2,63.80000000000291,-0.22,-0.30,0.90,0.00,0.02,0.00,40.3627402439428,0.4241185569510345,2.2655476117829227,
72041.3,63.90000000000873,-0.22,-0.31,0.91,-0.00,0.03,0.00,42.52448823913111,0.43917934566816974,2.256887065912314,
72041.4,64.0,-0.22,-0.31,0.91,0.00,0.03,-0.00,42.53129083392602,0.43195793304577523,2.2680509402162605,
72041.5,64.10000000000582,-0.22,-0.30,0.90,-0.00,0.01,-0.00,42.25199995266496,0.4833618734495873,2.2142619356229076,
72041.6,64.20000000001164,-0.22,-0.30,0.91,-0.00,0.01,-0.00,43.108168599466154,0.42965989584239633,2.258994430347283,
72041.7,64.30000000000291,-0.22,-0.31,0.90,-0.00,0.01,-0.00,41.29366416291971,0.465194071988433,2.262211621737686,
72041.8,64.40000000000873,-0.22,-0.31,0.91,-0.00,0.01,-0.00,42.77564961517241,0.46325109831579697,2.229126275715916,
72041.9,64.5,-0.22,-0.31,0.90,0.00,-0.00,0.01,42.38300012976901,0.44231715349471246,2.2363116249777337,
72042.1,64.70000000001164,-0.22,-0.31,0.90,0.01,0.00,-0.00,41.56323134694895,0.4407874079862321,2.237112589334055,
72042.2,64.80000000000291,-0.23,-0.30,0.91,0.01,0.01,-0.00,42.0470308107481,0.40783365582948317,2.2380497923629794,
72042.3,64.90000000000873,-0.22,-0.30,0.90,-0.00,0.01,-0.00,41.62497927927412,0.41665594943484213,2.250688300020532,
72042.4,65.0,-0.22,-0.30,0.91,0.00,0.01,0.00,41.268280797726476,0.44235961654699557,2.232260939413215,
72042.5,65.10000000000582,-0.23,-0.30,0.91,0.00,0.01,-0.00,42.11704405582139,0.437931994314585,2.2461361484972944,
72042.6,65.20000000001164,-0.22,-0.30,0.90,0.00,0.01,0.00,41.50837626311104,0.4493294356720854,2.2427612714543876,
72042.7,65.30000000000291,-0.23,-0.31,0.90,0.00,0.01,-0.00,41.39945047944477,0.44043453223357276,2.243928787403379,
72042.8,65.40000000000873,-0.23,-0.30,0.90,0.00,0.01,-0.00,41.10742268739309,0.4410314269297924,2.2402646888988595,
72042.9,65.5,-0.23,-0.31,0.90,-0.00,0.01,0.00,42.20789854991599,0.41758045415080747,2.2395723341540776,
72043.1,65.70000000001164,-0.23,-0.30,0.90,-0.00,-0.00,-0.00,42.16725981137498,0.4112203150399116,2.235202989567163,
72043.2,65.80000000000291,-0.22,-0.30,0.90,-0.00,-0.00,0.00,42.97817585705564,0.44091223571427274,2.235202858304282,
72043.3,65.90000000000873,-0.22,-0.31,0.91,-0.00,0.00,0.00,42.153611944885576,0.4742483927805864,2.2297430401770852,
72043.4,66.0,-0.22,-0.30,0.90,-0.00,0.00,-0.00,42.415387538015025,0.4344460589063493,2.241116365937663,
72043.5,66.10000000000582,-0.23,-0.31,0.90,-0.00,-0.00,-0.00,42.8853110050516,0.43623362806510996,2.2348255683349807,
72043.6,66.20000000001164,-0.23,-0.31,0.91,-0.00,-0.00,-0.01,41.65631044631773,0.42963400669345053,2.2473065054206205,
72043.7,66.30000000000291,-0.22,-0.30,0.91,-0.01,-0.00,-0.01,42.55008930660428,0.4462696794021985,2.2368145158562562,
72043.8,66.40000000000873,-0.23,-0.31,0.90,-0.00,-0.00,-0.00,41.7830037216091,0.424765297886511,2.2525562728030843,
72043.9,66.5,-0.23,-0.30,0.90,-0.00,-0.00,-0.00,41.10747985464446,0.4566248657378547,2.230682746346062,
72044.1,66.70000000001164,-0.13,-0.27,1.08,-0.02,-0.21,0.10,42.05661184641483,0.4397280690091434,2.2570840000975245,
72044.2,66.80000000000291,-0.14,-0.28,1.12,0.02,-0.17,0.14,42.48263292217186,0.3972649250787667,2.3416604031691217,
72044.3,66.90000000000873,-0.07,-0.20,1.25,1.96,-1.16,-0.07,41.72597632171116,0.24663703639927856,2.5032708622549396,
72044.4,67.0,-0.16,-0.28,1.16,2.13,-0.81,0.05,41.81416745554071,0.45587940368014307,2.2825040800133856,
72044.5,67.10000000000582,-0.14,-0.27,1.19,0.08,-0.17,0.18,41.433973982711336,5.853443105985156,2.6688705228414578,
72044.6,67.20000000001164,-0.15,-0.28,1.25,0.24,-0.22,0.08,42.46718968804034,0.43670418064752464,2.3103145348660483,
72044.7,67.30000000000291,-0.13,-0.25,1.13,0.31,-0.28,0.00,42.54883429660559,5.369241112571482,2.4414779803226248,
72044.8,67.40000000000873,-0.19,-0.30,1.29,-0.04,-0.32,0.09,41.35000483675909,0.44871283108507937,2.266428092544201,
72044.9,67.5,-0.19,-0.28,1.32,-0.03,-0.26,0.09,42.34352252706428,0.45623034785799,2.2418593269694,
72045.1,67.70000000001164,0.25,0.60,0.59,-0.09,-0.11,-0.11,44.76206652959624,5.388732485338901,2.4007521974599917,
72045.2,67.80000000000291,0.22,0.62,0.62,-0.19,-0.11,-0.24,44.76206652959624,5.388732485338901,2.4007521974599917,
72045.3,67.90000000000873,0.22,0.62,0.62,0.14,0.26,-0.04,43.534451874348896,5.34066523316863,2.3911319770782664,
72045.4,68.0,0.19,0.60,0.66,0.08,0.04,-0.04,41.669919606353936,5.387859431102665,2.338862691690447,
72045.5,68.10000000000582,0.20,0.60,0.67,-0.21,-0.11,-0.27,43.4402958093059,5.346587404862213,2.3897444415154308,
72045.6,68.20000000001164,0.21,0.60,0.69,-0.23,-0.01,-0.29,43.09497418493252,5.340618752981138,2.4174131362393974,
72045.7,68.30000000000291,0.20,0.59,0.68,-0.22,0.01,-0.32,43.08035050925189,5.440521807147418,2.4213091614868256,
72045.8,68.40000000000873,0.19,0.58,0.69,-0.21,0.04,-0.34,43.89577428409254,5.40344928134962,2.454301307545501,
72045.9,68.5,0.25,0.60,0.60,-0.21,0.09,-0.32,42.953068574899284,5.342829143828904,2.4261108485299054,
72046.1,68.70000000001164,0.17,0.42,0.48,-0.25,0.75,0.58,43.12477362259424,5.333786962183098,2.4552506146092687,
72046.2,68.80000000000291,0.14,0.42,0.50,-0.27,0.79,0.58,43.232972370633966,5.3230856750534326,2.4374236016032675,
72046.3,68.90000000000873,0.06,0.34,0.85,-0.28,0.82,0.57,43.194233411417315,5.663753010843249,2.5473679785331504,
72046.4,69.0,0.14,0.43,0.50,-0.29,0.88,0.57,40.94134096484872,6.058540854356278,2.606566244112911,
72046.5,69.10000000000582,0.17,0.41,0.53,-0.31,0.93,0.56,43.272580232752475,5.322270792910604,2.43349946626192,
72046.6,69.20000000001164,0.17,0.40,0.52,-0.33,0.94,0.56,42.0319330985383,0.316136140525855,2.494312410641411,
72046.7,69.30000000000291,0.17,0.40,0.50,-0.37,0.94,0.54,41.15653532551058,0.4245974027702785,2.402573048505502,
72046.8,69.40000000000873,0.11,0.46,0.44,-0.54,0.51,-0.01,43.73266742379202,5.371414018898931,2.4130180007422517,
72046.9,69.5,0.07,0.52,0.45,0.06,-0.07,0.12,42.51334966807485,5.404478071479399,2.436641358590674,
72047.1,69.70000000001164,-0.14,-0.30,0.88,-0.10,-0.02,0.02,41.88950345850378,0.4792579135111345,2.3003210830154135,
72047.2,69.80000000000291,-0.12,-0.29,0.83,-0.10,-0.02,0.01,42.35052538044835,0.4698913195491718,2.302309481929862,
72047.3,69.90000000000873,-0.13,-0.29,0.85,0.02,0.06,-0.06,42.067494577167295,0.4874662953616817,2.307081353199329,
72047.4,70.0,-0.18,-0.32,0.97,0.01,0.09,-0.10,42.35052538044835,0.4698913195491718,2.302309481929862,
72047.5,70.10000000000582,-0.20,-0.33,0.97,-0.08,-0.01,0.06,42.80934827815065,0.4990146061161204,2.323657103158235,
72047.6,70.20000000001164,-0.13,-0.29,0.87,-0.09,-0.01,0.04,41.47091752059508,0.49516321399013324,2.3543422173976793,
72047.7,70.30000000000291,-0.18,-0.32,0.96,-0.04,-0.04,0.06,42.37674126215936,0.4995021178095156,2.3274079364093274,
72047.8,70.40000000000873,-0.17,-0.29,0.95,-0.01,-0.16,0.09,42.04345609009802,0.49973937125944873,2.330316084815491,
72047.9,70.5,-0.16,-0.28,0.93,-0.01,-0.22,0.10,41.97749039663996,0.44797305727711434,2.337086176146599,
72048.1,70.70000000001164,-0.13,-0.31,0.93,-0.01,0.01,0.01,42.14061817296941,0.4870166046707713,2.314823423583732,
72048.2,70.80000000000291,-0.13,-0.32,0.92,-0.01,0.01,0.01,43.17192722128583,0.5172110404435198,2.3269027073686868,
72048.3,70.90000000000873,-0.13,-0.31,0.93,-0.00,0.01,0.01,42.573640906081785,0.48353257953922,2.3246605521840387,
72048.4,71.0,-0.13,-0.31,0.92,-0.01,0.00,0.01,43.566792399716554,0.46774774710241995,2.3647890324601573,
72048.5,71.10000000000582,-0.13,-0.31,0.92,0.01,0.00,-0.00,41.539523348252324,0.49398554048190063,2.311135461206898,
72048.6,71.20000000001164,-0.16,-0.32,0.92,0.01,-0.04,-0.02,42.771266055612614,0.4817689808939044,2.3442350986424874,
72048.7,71.30000000000291,-0.13,-0.31,0.92,-0.00,-0.06,-0.02,42.5870989854909,0.48482778679795774,2.339280441557077,
72048.8,71.40000000000873,-0.13,-0.31,0.93,-0.00,0.05,-0.00,41.634704274198945,0.4947294253213938,2.3038651581284277,
72048.9,71.5,-0.15,-0.31,0.91,-0.00,0.06,-0.01,42.089253972956094,0.4916482911233194,2.302773427633539,
72049.1,71.70000000001164,-0.15,-0.30,0.91,-0.01,0.08,-0.01,41.55810510598384,0.47243760907006255,2.3344454230424967,
72049.2,71.80000000000291,-0.16,-0.29,0.91,-0.01,0.06,-0.01,41.716157541173416,0.4752330069773412,2.3485021345450288,
72049.3,71.90000000000873,-0.16,-0.30,0.91,0.02,0.04,-0.01,42.003432002635215,0.478536675272139,2.3345122979972412,
72049.4,72.0,-0.14,-0.29,0.91,-0.01,0.01,0.00,42.27409963559248,0.4793561978654309,2.336899421373062,
72049.5,72.10000000000582,-0.15,-0.30,0.91,0.01,-0.00,0.02,41.53307838338016,0.5394607277935131,2.320120115625495,
72049.6,72.20000000001164,-0.16,-0.31,0.92,-0.00,0.09,-0.02,42.07716839332229,0.477634748653425,2.324002792319086,
72049.7,72.30000000000291,-0.16,-0.31,0.93,-0.03,0.01,0.02,41.791526653138675,0.524056717183311,2.3124331937349103,
72049.8,72.40000000000873,-0.16,-0.32,0.93,-0.03,0.01,0.02,42.20984837688949,0.5011726478310692,2.300209389993309,
72049.9,72.5,-0.15,-0.33,0.92,-0.00,0.01,0.02,41.46909451627802,0.46028799558183875,2.3110540294914967,
72050.1,72.70000000001164,-0.14,-0.32,0.92,0.01,0.09,-0.02,41.93573774240773,0.44135830730863945,2.313163859806201,
72050.2,72.80000000000291,-0.15,-0.31,0.91,0.01,0.06,-0.01,40.925691197583944,0.44314295880372817,2.3073045110266532,
72050.3,72.90000000000873,-0.13,-0.31,0.92,0.01,0.08,-0.01,42.21627766632203,0.4408432948532089,2.3035731598608558,
72050.4,73.0,-0.16,-0.31,0.91,0.01,0.08,-0.02,42.60890282558329,0.5001674128661815,2.2887485234355545,
72050.5,73.10000000000582,-0.16,-0.30,0.92,0.01,0.03,-0.02,42.49533856789471,0.4784654814696438,2.289208146469362,
72050.6,73.20000000001164,-0.17,-0.30,0.91,0.00,0.02,-0.01,42.255785402711425,0.43229752198774307,2.294175248527157,
72050.7,73.30000000000291,-0.17,-0.31,0.92,-0.02,0.00,-0.01,40.98751761207307,0.49305530758154553,2.3271948543183396,
72050.8,73.40000000000873,-0.17,-0.31,0.92,0.03,0.03,-0.00,41.80553432262288,0.45054917864460725,2.3037263850817813,
72050.9,73.5,-0.17,-0.31,0.92,0.01,0.04,0.00,41.08370601588907,0.46774774710241995,2.3034951712244016,
72051.1,73.70000000001164,-0.18,-0.32,0.91,-0.02,0.00,0.06,42.3242318300049,0.46891746478853985,2.305729882641003,
72051.2,73.80000000000291,-0.17,-0.32,0.92,-0.02,-0.01,0.06,42.137439409627156,0.4698913195491718,2.2966581205255285,
72051.3,73.90000000000873,-0.19,-0.31,0.91,0.01,0.05,-0.03,41.03177549168449,0.4501044190244521,2.3315474002724854,
72051.4,74.0,-0.16,-0.33,0.93,-0.02,-0.03,0.06,41.91584903112425,0.44966051093550347,2.2972033020155425,
72051.5,74.10000000000582,-0.18,-0.32,0.91,-0.02,-0.01,0.05,41.62398467230162,0.5031750326168216,2.2763090298807205,
72051.6,74.20000000001164,-0.14,-0.32,0.92,-0.01,-0.01,0.05,41.85489816019148,0.4436359848221634,2.2972187333253906,
72051.7,74.30000000000291,-0.14,-0.33,0.92,-0.01,0.00,0.04,42.6699449261421,0.43670418064752464,2.315508799796039,
72051.8,74.40000000000873,-0.14,-0.33,0.92,0.00,0.01,0.03,42.18603204853474,0.4627776657665887,2.3215859841162447,
72051.9,74.5,-0.14,-0.33,0.92,-0.01,-0.04,-0.01,42.6902834378035,0.43670418064752464,2.316025509534673,
72052.1,74.70000000001164,-0.13,-0.30,0.92,0.00,0.03,-0.01,42.73701908182179,0.49934672168013006,2.3102560488909627,
72052.2,74.80000000000291,-0.15,-0.32,0.92,-0.00,0.04,-0.02,41.922009732358966,0.5025609044917159,2.3079734171286512,
72052.3,74.90000000000873,-0.15,-0.30,0.91,-0.01,0.04,-0.02,43.22262948965506,0.5014481749448385,2.2849537696830726,
72052.4,75.0,-0.12,-0.31,0.92,-0.01,0.03,-0.01,41.90897159320424,0.47970293407211473,2.3118077350207615,
72052.5,75.10000000000582,-0.12,-0.30,0.92,-0.01,0.03,-0.00,43.33215203518053,0.4976315403689505,2.274563711383257,
72052.6,75.20000000001164,-0.12,-0.30,0.92,-0.01,0.02,0.00,40.886913554339124,0.512120373061205,2.304536325652905,
72052.7,75.30000000000291,-0.13,-0.30,0.92,-0.01,0.01,0.01,42.79021149749087,0.465194071988433,2.3034497602575468,
72052.8,75.40000000000873,-0.16,-0.29,0.92,0.01,0.02,-0.01,42.272113739438204,0.46623976909357956,2.316462641617064,
72052.9,75.5,0.01,-0.13,1.23,0.01,0.03,-0.01,42.39495960606638,0.1552960657153255,2.5767556955009807,
72053.1,75.70000000001164,0.04,0.19,0.95,1.64,-0.55,-0.17,42.421825750431815,5.582767172249694,2.5687605366587762,
72053.2,75.80000000000291,0.10,0.34,0.50,1.19,0.16,-0.48,42.0499476812992,5.352325041892856,2.48085092624495,
72053.3,75.90000000000873,0.03,0.19,0.95,0.67,-0.22,-0.41,43.28443831216942,5.4226437261222635,2.4388799463655184,
72053.4,76.0,0.18,0.50,0.50,2.20,-0.52,0.03,42.304714867258,5.935719456104856,2.6413028150475157,
72053.5,76.10000000000582,0.02,0.19,0.94,2.15,-0.59,0.01,42.886083990031075,5.382655452037242,2.3432510098302264,
72053.6,76.20000000001164,0.11,0.57,0.63,2.00,-0.52,-0.01,42.06850841187503,6.038082219516846,2.6598169961465015,
72053.7,76.30000000000291,0.02,0.19,0.93,1.85,-0.52,-0.06,42.934086691112924,5.7099555240529325,2.6146491270881813,
72053.8,76.40000000000873,0.02,0.19,0.91,1.77,-0.52,-0.10,43.50521922712262,5.449528490850187,2.415773913455144,
72053.9,76.5,0.06,0.31,0.67,0.19,-0.18,0.03,43.021575982290564,5.644527677649682,2.619027880546465,
72054.1,76.70000000001164,0.10,0.67,0.67,0.09,0.04,-0.03,43.05974686409571,5.459116661585243,2.3768427928047684,
72054.2,76.80000000000291,0.14,0.65,0.74,0.09,0.01,-0.03,42.81402690707801,5.421123696699326,2.365016982459824,
72054.3,76.90000000000873,0.11,0.65,0.68,-0.08,-0.12,-0.07,43.64761276404472,5.385209002928353,2.406621986244247,
72054.4,77.0,0.10,0.65,0.69,0.05,-0.02,-0.04,43.36711888055281,5.4487539255123245,2.3727952343427465,
72054.5,77.10000000000582,0.07,0.66,0.69,0.05,0.02,-0.04,43.62599454453732,5.427656484672848,2.4370858296241162,
72054.6,77.20000000001164,0.08,0.66,0.68,0.04,0.01,-0.04,42.034075462652915,5.437118714894812,2.4054520919509916,
72054.7,77.30000000000291,0.09,0.67,0.68,0.03,-0.01,-0.03,42.613450928081384,5.289424216229229,2.445881362235439,
72054.8,77.40000000000873,0.08,0.67,0.70,0.03,-0.02,-0.01,41.64400797233619,5.339840702124555,2.442670802587318,
72054.9,77.5,0.08,0.67,0.71,0.03,-0.02,-0.00,42.04826155740568,5.440129601962948,2.413617427360674,
72055.1,77.70000000001164,0.05,0.30,0.86,-1.92,0.29,-0.88,42.1675870782287,6.095167136560911,2.4979307093236898,
72055.2,77.80000000000291,0.04,0.28,0.87,-1.99,0.35,-0.90,43.10509250657049,5.686764694206418,2.4739607868280995,
72055.3,77.90000000000873,-0.17,-0.14,1.18,-1.82,0.23,-0.81,42.172869240780855,0.3781512853000866,2.403235042872765,
72055.4,78.0,-0.04,0.18,0.97,-1.87,0.26,-0.85,42.50875439247779,5.772696985262811,2.498209039055403,
72055.5,78.10000000000582,-0.07,0.21,1.01,-2.04,0.38,-0.85,43.405773809482994,0.5027554967593236,2.379519282996948,
72055.6,78.20000000001164,-0.04,0.24,1.12,-2.26,0.29,-0.67,42.19805090285569,5.898692577333689,2.4891224913106127,
72055.7,78.30000000000291,-0.03,0.20,1.17,-2.38,0.26,-0.71,42.351118048996064,0.46455697522482947,2.370768113276692,
72055.8,78.40000000000873,-0.04,0.13,1.23,-2.42,0.27,-0.79,41.9747650380559,5.929905316117216,2.486279824835668,
72055.9,78.5,-0.05,0.08,1.27,-2.42,0.30,-0.86,41.64590496075215,5.981840083469482,2.4804209201549545,
72056.1,78.70000000001164,-0.12,-0.29,0.93,-0.01,-0.02,0.01,42.298232823606234,0.4725926885505464,2.3191137542019207,
72056.2,78.80000000000291,-0.12,-0.29,0.93,-0.01,-0.03,0.02,42.343436327251474,0.4085158967451202,2.3395878372957855,
72056.3,78.90000000000873,-0.17,-0.30,0.91,-0.01,-0.02,0.01,42.141487871217834,0.4358972473354063,2.32810952903526,
72056.4,79.0,-0.13,-0.29,0.93,-0.01,0.01,-0.01,42.14504834497168,0.4707934695758213,2.326724497303401,
72056.5,79.10000000000582,-0.14,-0.29,0.94,-0.00,0.04,-0.02,42.25089229826987,0.43243132326639144,2.3633869837285477,
72056.6,79.20000000001164,-0.14,-0.30,0.93,-0.02,-0.06,-0.00,41.59162055029835,0.45561260908972756,2.353148536324907,
72056.7,79.30000000000291,-0.15,-0.30,0.93,-0.02,-0.01,-0.03,42.363708525104364,0.4174412177202469,2.360689047189771,
72056.8,79.40000000000873,-0.15,-0.31,0.92,0.00,0.05,-0.02,41.65854774233014,0.4424859530364546,2.3444815399577346,
72056.9,79.5,-0.16,-0.29,0.92,0.01,0.06,-0.02,42.11090238881138,0.44710776403141805,2.357306552661703,
72057.1,79.70000000001164,-0.14,-0.29,0.93,0.01,0.05,0.01,41.77813064271785,0.45201495651687057,2.354111480507459,
72057.2,79.80000000000291,-0.14,-0.29,0.93,0.01,0.04,0.01,41.42078463766711,0.46770103222970255,2.338966263286295,
72057.3,79.90000000000873,-0.15,-0.29,0.93,0.01,0.04,0.01,40.13711250202237,0.44136585385194516,2.3589739793119455,
72057.4,80.0,-0.15,-0.29,0.93,0.02,0.07,0.00,41.99471633431996,0.46155899500072334,2.3466506933989324,
72057.5,80.10000000000582,-0.15,-0.29,0.93,0.01,0.05,0.01,42.66293121668974,0.44797305727711434,2.353637100724398,
72057.6,80.20000000001164,-0.15,-0.30,0.93,-0.01,0.02,0.01,42.36729989036356,0.46527050518592866,2.344308027196085,
72057.7,80.30000000000291,-0.16,-0.29,0.92,-0.01,-0.01,0.01,42.6620147203575,0.4422814758057996,2.3359580378654567,
72057.8,80.40000000000873,-0.14,-0.28,0.92,0.02,0.07,-0.01,43.42827880540512,0.4153984805133416,2.326083856406983,
72057.9,80.5,-0.14,-0.29,0.93,0.03,0.07,-0.02,40.7722552724276,0.45231231019909895,2.343430173033428,
72058.1,80.70000000001164,-0.14,-0.30,0.91,-0.01,-0.02,0.01,41.93691094966343,0.5094750010749484,2.3219106833925736,
72058.2,80.80000000000291,-0.15,-0.31,0.92,-0.01,-0.02,0.01,40.61005540503484,0.43432554859999695,2.3414794481453294,
72058.3,80.90000000000873,-0.15,-0.30,0.91,-0.01,-0.02,0.00,41.440856651377274,0.4727451593696328,2.349625904905177,
72058.4,81.0,-0.15,-0.30,0.91,-0.02,-0.01,0.01,40.81987996062703,0.4358972473354063,2.293210098588516,
72058.5,81.10000000000582,-0.15,-0.29,0.93,-0.01,-0.01,0.00,42.79880372159951,0.4555459344105008,2.3345094785568308,
72058.6,81.20000000001164,-0.15,-0.29,0.92,0.00,0.06,0.04,41.5335454783239,0.49219036776121844,2.3148608550915593,
72058.7,81.30000000000291,-0.15,-0.29,0.92,0.02,-0.01,0.03,42.62028038387359,0.4532633106362393,2.3414672177806626,
72058.8,81.40000000000873,-0.15,-0.30,0.92,-0.00,0.02,0.03,40.85174414881205,0.46519919813583105,2.3583935966702665,
72058.9,81.5,-0.14,-0.29,0.92,-0.01,-0.01,0.00,42.06024250999987,0.4453281456276109,2.3381629696434953,
72059.1,81.70000000001164,-0.15,-0.29,0.93,-0.00,0.01,-0.01,42.086887506680746,0.4534438815068519,2.324763666761379,
72059.2,81.80000000000291,-0.15,-0.30,0.93,-0.01,0.01,-0.01,40.72352882548368,0.4881517834460004,2.302534810732082,
72059.4,82.0,-0.15,-0.30,0.92,0.01,0.01,-0.01,42.199077004124156,0.4431526752560567,2.3320443414976273,
72059.8,82.40000000000873,-0.15,-0.29,0.91,0.01,0.02,0.00,42.30367123548499,0.4489885080747748,2.3464397955512997,
72059.9,82.5,-0.16,-0.30,0.93,-0.00,0.00,-0.01,42.64942438064082,0.46774774710241995,2.3434200714957463,
