Relative Time (to start of segment),aclx 1,aclx 2,aclx 3,aclx 4,aclx 5,aclx 6,acly 1,acly 2,acly 3,acly 4,acly 5,acly 6,aclz 1,aclz 2,aclz 3,aclz 4,aclz 5,aclz 6,gyrx 1,gyrx 2,gyrx 3,gyrx 4,gyrx 5,gyrx 6,gyry 1,gyry 2,gyry 3,gyry 4,gyry 5,gyry 6,gyrz 1,gyrz 2,gyrz 3,gyrz 4,gyrz 5,gyrz 6,magr 1,magr 2,magr 3,magr 4,magr 5,magr 6,magphi 1,magphi 2,magphi 3,magphi 4,magphi 5,magphi 6,magtheta 1,magtheta 2,magtheta 3,magtheta 4,magtheta 5,magtheta 6,
0.000000,-0.023993,,,,,,-0.029575,,,,,,-0.005260,,,,,,0.000450,,,,,,0.001381,,,,,,0.004987,,,,,,0.000000,,,,,,-0.027534,,,,,,0.025643,,,,,,
0.035714,-0.019672,,,,,,-0.026851,,,,,,0.007258,,,,,,0.011538,,,,,,-0.019348,,,,,,0.016825,,,,,,0.000000,,,,,,-0.027692,,,,,,0.016705,,,,,,
0.071429,-0.015897,,,,,,-0.025136,,,,,,0.020406,,,,,,0.023011,,,,,,-0.040077,,,,,,0.028040,,,,,,0.000000,,,,,,-0.027789,,,,,,0.008044,,,,,,
0.107143,-0.009599,,,,,,-0.020643,,,,,,0.037158,,,,,,0.034773,,,,,,-0.059738,,,,,,0.038632,,,,,,0.000000,,,,,,-0.016993,,,,,,-0.009510,,,,,,
0.178571,-0.004694,,,,,,-0.018215,,,,,,0.051961,,,,,,0.046825,,,,,,-0.076834,,,,,,0.047978,,,,,,0.000000,,,,,,-0.017162,,,,,,-0.018004,,,,,,
0.214286,0.000293,,,,,,-0.015364,,,,,,0.067012,,,,,,0.058973,,,,,,-0.093075,,,,,,0.057013,,,,,,0.000000,,,,,,-0.017394,,,,,,-0.027687,,,,,,
0.250000,0.008872,,,,,,-0.008645,,,,,,0.079686,,,,,,0.071410,,,,,,-0.107607,,,,,,0.064801,,,,,,0.000000,,,,,,-0.006968,,,,,,-0.037487,,,,,,
0.285714,0.013744,,,,,,-0.005669,,,,,,0.094054,,,,,,0.082208,,,,,,-0.128764,,,,,,0.076951,,,,,,0.000000,,,,,,-0.007210,,,,,,-0.047971,,,,,,
0.321429,0.024650,,,,,,0.000719,,,,,,0.123338,,,,,,0.104817,,,,,,-0.168512,,,,,,0.099614,,,,,,0.000000,,,,,,-0.004945,,,,,,-0.071534,,,,,,
0.357143,0.031227,,,,,,0.008782,,,,,,0.119736,,,,,,0.082015,,,,,,-0.121711,,,,,,0.074147,,,,,,0.000000,,,,,,0.013469,,,,,,-0.071931,,,,,,
0.392857,0.036910,,,,,,0.017653,,,,,,0.103252,,,,,,0.069771,,,,,,-0.090511,,,,,,0.055455,,,,,,0.000000,,,,,,0.024034,,,,,,-0.072251,,,,,,
0.428571,0.038704,,,,,,0.024316,,,,,,0.083087,,,,,,0.058298,,,,,,-0.059738,,,,,,0.043305,,,,,,0.000000,,,,,,0.023662,,,,,,-0.061717,,,,,,
0.464286,0.042006,,,,,,0.032649,,,,,,0.064802,,,,,,0.046728,,,,,,-0.033025,,,,,,0.033959,,,,,,0.000000,,,,,,0.034260,,,,,,-0.059991,,,,,,
0.535714,0.046839,,,,,,0.041596,,,,,,0.048266,,,,,,0.033809,,,,,,-0.005244,,,,,,0.017760,,,,,,0.000000,,,,,,0.044878,,,,,,-0.058111,,,,,,
0.571429,0.043277,,,,,,0.041066,,,,,,0.031524,,,,,,0.022818,,,,,,0.015272,,,,,,0.010595,,,,,,0.000000,,,,,,0.034438,,,,,,-0.045905,,,,,,
0.607143,0.049083,,,,,,0.049564,,,,,,0.015148,,,,,,0.013755,,,,,,0.041984,,,,,,-0.000932,,,,,,0.000000,,,,,,0.045107,,,,,,-0.041524,,,,,,
0.642857,0.047722,,,,,,0.052336,,,,,,-0.003203,,,,,,0.001800,,,,,,0.074467,,,,,,-0.020870,,,,,,0.000000,,,,,,0.045288,,,,,,-0.031932,,,,,,
0.678571,0.047373,,,,,,0.054459,,,,,,-0.034186,,,,,,0.000800,,,,,,0.088010,,,,,,-0.029709,,,,,,0.000000,,,,,,0.030912,,,,,,-0.020900,,,,,,
0.714286,0.044020,,,,,,0.047463,,,,,,-0.041087,,,,,,-0.000514,,,,,,0.089212,,,,,,-0.034577,,,,,,0.000000,,,,,,0.013910,,,,,,-0.006020,,,,,,
0.750000,0.035547,,,,,,0.036783,,,,,,-0.036512,,,,,,-0.000900,,,,,,0.078100,,,,,,-0.033642,,,,,,0.000000,,,,,,0.003428,,,,,,-0.000504,,,,,,
0.785714,0.026359,,,,,,0.026448,,,,,,-0.033753,,,,,,-0.001382,,,,,,0.068911,,,,,,-0.034266,,,,,,0.000000,,,,,,-0.007048,,,,,,0.008027,,,,,,
0.821429,0.015555,,,,,,0.015162,,,,,,-0.032432,,,,,,-0.000610,,,,,,0.057798,,,,,,-0.027723,,,,,,0.000000,,,,,,-0.017496,,,,,,0.017178,,,,,,
0.892857,0.009725,,,,,,0.009300,,,,,,-0.028640,,,,,,-0.001960,,,,,,0.052028,,,,,,-0.028035,,,,,,0.000000,,,,,,-0.017511,,,,,,0.016208,,,,,,
0.928571,-0.001716,,,,,,-0.001822,,,,,,-0.027240,,,,,,-0.003695,,,,,,0.047327,,,,,,-0.028658,,,,,,0.000000,,,,,,-0.027981,,,,,,0.023106,,,,,,
0.964286,-0.006333,,,,,,-0.007415,,,,,,-0.023662,,,,,,-0.002924,,,,,,0.036001,,,,,,-0.022116,,,,,,0.000000,,,,,,-0.027930,,,,,,0.026549,,,,,,
1.000000,-0.014759,,,,,,-0.014049,,,,,,-0.018553,,,,,,-0.002056,,,,,,0.025102,,,,,,-0.015262,,,,,,0.000000,,,,,,-0.027866,,,,,,0.029514,,,,,,
0.000000,,-0.030699,,,,,,-0.026670,,,,,,-0.004237,,,,,,-0.000393,,,,,,0.000499,,,,,,0.004286,,,,,,0.000000,,,,,,-0.027903,,,,,,0.030688,,,,,
0.020408,,-0.031243,,,,,,-0.025692,,,,,,0.022093,,,,,,-0.000417,,,,,,0.000099,,,,,,0.004987,,,,,,0.000000,,,,,,-0.028056,,,,,,0.025144,,,,,
0.040816,,-0.026405,,,,,,-0.022915,,,,,,0.034896,,,,,,0.012791,,,,,,-0.016143,,,,,,0.028663,,,,,,0.000000,,,,,,-0.028286,,,,,,0.014306,,,,,
0.061224,,-0.020770,,,,,,-0.019779,,,,,,0.049132,,,,,,0.025903,,,,,,-0.032811,,,,,,0.052028,,,,,,0.000000,,,,,,-0.017124,,,,,,0.001570,,,,,
0.081633,,-0.012568,,,,,,-0.014290,,,,,,0.063918,,,,,,0.039015,,,,,,-0.048839,,,,,,0.075393,,,,,,0.000000,,,,,,-0.006408,,,,,,-0.012336,,,,,
0.122449,,-0.005675,,,,,,-0.010619,,,,,,0.079238,,,,,,0.052320,,,,,,-0.063371,,,,,,0.099069,,,,,,0.000000,,,,,,0.004691,,,,,,-0.025280,,,,,
0.142857,,0.003290,,,,,,-0.004300,,,,,,0.090180,,,,,,0.065914,,,,,,-0.076407,,,,,,0.122434,,,,,,0.000000,,,,,,0.015211,,,,,,-0.039925,,,,,
0.163265,,0.010676,,,,,,-0.000196,,,,,,0.103084,,,,,,0.070638,,,,,,-0.078971,,,,,,0.099069,,,,,,0.000000,,,,,,0.026289,,,,,,-0.052654,,,,,
0.183673,,0.021362,,,,,,0.007409,,,,,,0.113590,,,,,,0.083943,,,,,,-0.095426,,,,,,0.123057,,,,,,0.000000,,,,,,0.036694,,,,,,-0.062970,,,,,
0.204082,,0.039889,,,,,,0.019335,,,,,,0.106792,,,,,,0.110348,,,,,,-0.118746,,,,,,0.158844,,,,,,0.000000,,,,,,0.056692,,,,,,-0.078445,,,,,
0.224490,,0.047138,,,,,,0.027759,,,,,,0.092348,,,,,,0.112771,,,,,,-0.111881,,,,,,0.151718,,,,,,0.000000,,,,,,0.068346,,,,,,-0.068295,,,,,
0.244898,,0.051356,,,,,,0.036245,,,,,,0.072187,,,,,,0.101008,,,,,,-0.089015,,,,,,0.124303,,,,,,0.000000,,,,,,0.067612,,,,,,-0.059931,,,,,
0.265306,,0.054114,,,,,,0.042395,,,,,,0.052563,,,,,,0.088089,,,,,,-0.074911,,,,,,0.102496,,,,,,0.000000,,,,,,0.067355,,,,,,-0.050676,,,,,
0.285714,,0.059093,,,,,,0.050296,,,,,,0.028976,,,,,,0.074591,,,,,,-0.057815,,,,,,0.078820,,,,,,0.000000,,,,,,0.066686,,,,,,-0.044294,,,,,
0.326531,,0.060732,,,,,,0.055544,,,,,,0.011176,,,,,,0.062058,,,,,,-0.036872,,,,,,0.051094,,,,,,0.000000,,,,,,0.066625,,,,,,-0.034901,,,,,
0.346939,,0.065382,,,,,,0.063063,,,,,,-0.010452,,,,,,0.056562,,,,,,-0.035590,,,,,,0.073835,,,,,,0.000000,,,,,,0.065981,,,,,,-0.028342,,,,,
0.367347,,0.066629,,,,,,0.067427,,,,,,-0.026982,,,,,,0.044221,,,,,,-0.010373,,,,,,0.045486,,,,,,0.000000,,,,,,0.065979,,,,,,-0.027388,,,,,
0.387755,,0.067520,,,,,,0.071509,,,,,,-0.041298,,,,,,0.030724,,,,,,0.004800,,,,,,0.023056,,,,,,0.000000,,,,,,0.065973,,,,,,-0.025402,,,,,
0.408163,,0.068106,,,,,,0.078267,,,,,,-0.064542,,,,,,0.005030,,,,,,0.037523,,,,,,-0.016392,,,,,,0.000000,,,,,,0.066024,,,,,,-0.023218,,,,,
0.428571,,0.067811,,,,,,0.077999,,,,,,-0.060783,,,,,,-0.003406,,,,,,0.058439,,,,,,0.016825,,,,,,0.000000,,,,,,0.065977,,,,,,-0.027004,,,,,
0.448980,,0.067117,,,,,,0.078031,,,,,,-0.063348,,,,,,-0.006106,,,,,,0.072971,,,,,,0.021187,,,,,,0.000000,,,,,,0.065979,,,,,,-0.028022,,,,,
0.469388,,0.064885,,,,,,0.078215,,,,,,-0.063428,,,,,,-0.008902,,,,,,0.082588,,,,,,0.025860,,,,,,0.000000,,,,,,0.065967,,,,,,-0.025439,,,,,
0.489796,,0.062419,,,,,,0.076874,,,,,,-0.064853,,,,,,-0.013626,,,,,,0.087075,,,,,,0.034582,,,,,,0.000000,,,,,,0.066214,,,,,,-0.026086,,,,,
0.530612,,0.060553,,,,,,0.076207,,,,,,-0.064270,,,,,,-0.017482,,,,,,0.101607,,,,,,0.041125,,,,,,0.000000,,,,,,0.066203,,,,,,-0.023523,,,,,
0.551020,,0.056839,,,,,,0.071903,,,,,,-0.061432,,,,,,-0.023364,,,,,,0.106522,,,,,,0.052028,,,,,,0.000000,,,,,,0.066808,,,,,,-0.023972,,,,,
0.571429,,0.056828,,,,,,0.070340,,,,,,-0.060150,,,,,,-0.029148,,,,,,0.115925,,,,,,0.061686,,,,,,0.000000,,,,,,0.066835,,,,,,-0.021912,,,,,
0.591837,,0.058355,,,,,,0.069343,,,,,,-0.059853,,,,,,-0.041875,,,,,,0.121268,,,,,,0.053274,,,,,,0.000000,,,,,,0.066868,,,,,,-0.022279,,,,,
0.612245,,0.058490,,,,,,0.068190,,,,,,-0.063924,,,,,,-0.045840,,,,,,0.117581,,,,,,0.035128,,,,,,0.000000,,,,,,0.067069,,,,,,-0.021032,,,,,
0.632653,,0.050293,,,,,,0.057218,,,,,,-0.062495,,,,,,-0.038982,,,,,,0.076177,,,,,,0.041748,,,,,,0.000000,,,,,,0.046084,,,,,,-0.007411,,,,,
0.653061,,0.040442,,,,,,0.045773,,,,,,-0.052208,,,,,,-0.036668,,,,,,0.063141,,,,,,0.038632,,,,,,0.000000,,,,,,0.035632,,,,,,-0.003212,,,,,
0.673469,,0.032184,,,,,,0.035824,,,,,,-0.043033,,,,,,-0.033776,,,,,,0.049250,,,,,,0.035517,,,,,,0.000000,,,,,,0.024949,,,,,,0.002092,,,,,
0.693878,,0.020932,,,,,,0.025115,,,,,,-0.034068,,,,,,-0.029823,,,,,,0.034932,,,,,,0.032090,,,,,,0.000000,,,,,,0.014502,,,,,,0.006851,,,,,
0.734694,,0.012519,,,,,,0.017824,,,,,,-0.027562,,,,,,-0.025677,,,,,,0.019118,,,,,,0.028663,,,,,,0.000000,,,,,,0.003462,,,,,,0.013237,,,,,
0.755102,,0.000676,,,,,,0.007618,,,,,,-0.020871,,,,,,-0.021339,,,,,,0.000312,,,,,,0.026483,,,,,,0.000000,,,,,,-0.007013,,,,,,0.018400,,,,,
0.775510,,-0.010666,,,,,,-0.002824,,,,,,-0.013998,,,,,,-0.011119,,,,,,-0.015929,,,,,,0.043305,,,,,,0.000000,,,,,,-0.017464,,,,,,0.022611,,,,,
0.795918,,-0.021237,,,,,,-0.013973,,,,,,-0.006057,,,,,,-0.005720,,,,,,-0.030033,,,,,,0.036452,,,,,,0.000000,,,,,,-0.027944,,,,,,0.027717,,,,,
0.816327,,-0.033459,,,,,,-0.025076,,,,,,0.007787,,,,,,-0.006901,,,,,,-0.021859,,,,,,0.029170,,,,,,0.000000,,,,,,-0.027958,,,,,,0.025015,,,,,
0.836735,,-0.032225,,,,,,-0.025358,,,,,,0.003739,,,,,,-0.007841,,,,,,-0.028324,,,,,,0.036452,,,,,,0.000000,,,,,,-0.027939,,,,,,0.025140,,,,,
0.857143,,-0.031552,,,,,,-0.025610,,,,,,0.001375,,,,,,-0.006877,,,,,,-0.025332,,,,,,0.035517,,,,,,0.000000,,,,,,-0.027920,,,,,,0.025875,,,,,
0.877551,,-0.030411,,,,,,-0.025820,,,,,,0.000718,,,,,,-0.006009,,,,,,-0.023408,,,,,,0.032713,,,,,,0.000000,,,,,,-0.027903,,,,,,0.025107,,,,,
0.897959,,-0.029864,,,,,,-0.025991,,,,,,-0.001774,,,,,,-0.005238,,,,,,-0.021271,,,,,,0.029910,,,,,,0.000000,,,,,,-0.027905,,,,,,0.027633,,,,,
0.938776,,-0.028419,,,,,,-0.026159,,,,,,-0.001836,,,,,,-0.004178,,,,,,-0.015288,,,,,,0.025860,,,,,,0.000000,,,,,,-0.027880,,,,,,0.025577,,,,,
0.959184,,-0.027944,,,,,,-0.026144,,,,,,-0.003145,,,,,,-0.003117,,,,,,-0.008449,,,,,,0.021187,,,,,,0.000000,,,,,,-0.027897,,,,,,0.026336,,,,,
0.979592,,-0.027648,,,,,,-0.026322,,,,,,-0.003839,,,,,,-0.002924,,,,,,-0.007595,,,,,,0.023056,,,,,,0.000000,,,,,,-0.027879,,,,,,0.027052,,,,,
1.000000,,-0.027426,,,,,,-0.026247,,,,,,-0.003454,,,,,,-0.001574,,,,,,-0.000970,,,,,,0.017760,,,,,,0.000000,,,,,,-0.027902,,,,,,0.026320,,,,,
0.000000,,,-0.025608,,,,,,-0.027130,,,,,,0.000234,,,,,,-0.000707,,,,,,0.001595,,,,,,0.010595,,,,,,0.000000,,,,,,-0.027787,,,,,,0.022149,,,,
0.044444,,,-0.023291,,,,,,-0.026672,,,,,,0.006732,,,,,,-0.000707,,,,,,0.001808,,,,,,0.010595,,,,,,0.000000,,,,,,-0.027769,,,,,,0.023668,,,,
0.066667,,,-0.025619,,,,,,-0.026938,,,,,,0.023022,,,,,,-0.000707,,,,,,0.002022,,,,,,0.010595,,,,,,0.000000,,,,,,-0.027804,,,,,,0.023567,,,,
0.088889,,,-0.025538,,,,,,-0.026429,,,,,,0.036169,,,,,,-0.000707,,,,,,0.002236,,,,,,0.010283,,,,,,0.000000,,,,,,-0.027811,,,,,,0.023003,,,,
0.111111,,,-0.024216,,,,,,-0.023065,,,,,,0.046423,,,,,,-0.000707,,,,,,0.002236,,,,,,0.009972,,,,,,0.000000,,,,,,-0.016698,,,,,,0.016189,,,,
0.133333,,,-0.024436,,,,,,-0.018716,,,,,,0.049648,,,,,,-0.000827,,,,,,0.002182,,,,,,0.009894,,,,,,0.000000,,,,,,-0.015333,,,,,,0.016304,,,,
0.155556,,,-0.021332,,,,,,-0.012011,,,,,,0.030331,,,,,,-0.000707,,,,,,0.001381,,,,,,0.009037,,,,,,0.000000,,,,,,-0.016745,,,,,,0.017635,,,,
0.177778,,,-0.012100,,,,,,-0.002719,,,,,,0.023941,,,,,,0.007392,,,,,,-0.004175,,,,,,-0.002490,,,,,,0.000000,,,,,,-0.006249,,,,,,0.009395,,,,
0.200000,,,-0.002933,,,,,,0.006135,,,,,,0.018443,,,,,,0.012309,,,,,,-0.008449,,,,,,-0.023050,,,,,,0.000000,,,,,,0.004333,,,,,,-0.001328,,,,
0.222222,,,0.004232,,,,,,0.015064,,,,,,0.008071,,,,,,0.022239,,,,,,-0.018921,,,,,,-0.027723,,,,,,0.000000,,,,,,0.014884,,,,,,-0.014447,,,,
0.266667,,,0.016070,,,,,,0.025554,,,,,,-0.014397,,,,,,0.032073,,,,,,-0.028324,,,,,,-0.032396,,,,,,0.000000,,,,,,0.025349,,,,,,-0.021806,,,,
0.288889,,,0.025821,,,,,,0.034567,,,,,,-0.033369,,,,,,0.041425,,,,,,-0.038154,,,,,,-0.040185,,,,,,0.000000,,,,,,0.035902,,,,,,-0.031360,,,,
0.311111,,,0.034536,,,,,,0.040829,,,,,,-0.051096,,,,,,0.050777,,,,,,-0.047771,,,,,,-0.048907,,,,,,0.000000,,,,,,0.035313,,,,,,-0.033147,,,,
0.333333,,,0.045354,,,,,,0.047351,,,,,,-0.058087,,,,,,0.059937,,,,,,-0.056319,,,,,,-0.057942,,,,,,0.000000,,,,,,0.045831,,,,,,-0.040884,,,,
0.355556,,,0.060924,,,,,,0.060199,,,,,,-0.052530,,,,,,0.077267,,,,,,-0.070183,,,,,,-0.076673,,,,,,0.000000,,,,,,0.066912,,,,,,-0.061308,,,,
0.377778,,,0.059288,,,,,,0.063498,,,,,,-0.052840,,,,,,0.077580,,,,,,-0.067859,,,,,,-0.077257,,,,,,0.000000,,,,,,0.066891,,,,,,-0.054761,,,,
0.400000,,,0.059327,,,,,,0.066034,,,,,,-0.054629,,,,,,0.072567,,,,,,-0.067217,,,,,,-0.061992,,,,,,0.000000,,,,,,0.066783,,,,,,-0.048490,,,,
0.422222,,,0.059781,,,,,,0.067897,,,,,,-0.056526,,,,,,0.062540,,,,,,-0.061447,,,,,,-0.055450,,,,,,0.000000,,,,,,0.066702,,,,,,-0.043398,,,,
0.444444,,,0.059931,,,,,,0.069213,,,,,,-0.056231,,,,,,0.051356,,,,,,-0.054609,,,,,,-0.051711,,,,,,0.000000,,,,,,0.066714,,,,,,-0.041418,,,,
0.488889,,,0.059603,,,,,,0.070991,,,,,,-0.055347,,,,,,0.040365,,,,,,-0.046916,,,,,,-0.044234,,,,,,0.000000,,,,,,0.066651,,,,,,-0.036614,,,,
0.511111,,,0.059208,,,,,,0.072538,,,,,,-0.050350,,,,,,0.029278,,,,,,-0.039009,,,,,,-0.036135,,,,,,0.000000,,,,,,0.066596,,,,,,-0.036529,,,,
0.533333,,,0.057246,,,,,,0.073951,,,,,,-0.044145,,,,,,0.018576,,,,,,-0.032811,,,,,,-0.028035,,,,,,0.000000,,,,,,0.066589,,,,,,-0.033884,,,,
0.555556,,,0.057010,,,,,,0.074461,,,,,,-0.044299,,,,,,0.008356,,,,,,-0.028965,,,,,,-0.019624,,,,,,0.000000,,,,,,0.066548,,,,,,-0.028756,,,,
0.577778,,,0.058939,,,,,,0.074814,,,,,,-0.042824,,,,,,-0.011131,,,,,,-0.024744,,,,,,-0.000620,,,,,,0.000000,,,,,,0.066486,,,,,,-0.032851,,,,
0.600000,,,0.059006,,,,,,0.074929,,,,,,-0.044605,,,,,,-0.010734,,,,,,-0.030033,,,,,,-0.002490,,,,,,0.000000,,,,,,0.066470,,,,,,-0.033279,,,,
0.622222,,,0.056973,,,,,,0.073356,,,,,,-0.041820,,,,,,-0.022978,,,,,,-0.016143,,,,,,-0.011212,,,,,,0.000000,,,,,,0.066578,,,,,,-0.035070,,,,
0.644444,,,0.052800,,,,,,0.069976,,,,,,-0.036574,,,,,,-0.034451,,,,,,-0.004816,,,,,,-0.017131,,,,,,0.000000,,,,,,0.067019,,,,,,-0.037442,,,,
0.666667,,,0.050772,,,,,,0.063654,,,,,,-0.025180,,,,,,-0.046213,,,,,,0.006510,,,,,,-0.024297,,,,,,0.000000,,,,,,0.067683,,,,,,-0.041752,,,,
0.711111,,,0.042659,,,,,,0.055010,,,,,,-0.011635,,,,,,-0.053444,,,,,,0.015058,,,,,,-0.033331,,,,,,0.000000,,,,,,0.057082,,,,,,-0.039150,,,,
0.733333,,,0.040745,,,,,,0.047326,,,,,,-0.007522,,,,,,-0.058072,,,,,,0.027453,,,,,,-0.035512,,,,,,0.000000,,,,,,0.046541,,,,,,-0.039143,,,,
0.755556,,,0.037462,,,,,,0.039840,,,,,,-0.006108,,,,,,-0.069256,,,,,,0.043694,,,,,,-0.044234,,,,,,0.000000,,,,,,0.036098,,,,,,-0.037268,,,,
0.777778,,,0.034294,,,,,,0.037834,,,,,,0.000862,,,,,,-0.081404,,,,,,0.061645,,,,,,-0.058253,,,,,,0.000000,,,,,,0.036211,,,,,,-0.035141,,,,
0.800000,,,0.027509,,,,,,0.030198,,,,,,0.019619,,,,,,-0.104736,,,,,,0.094742,,,,,,-0.080177,,,,,,0.000000,,,,,,0.032667,,,,,,-0.038915,,,,
0.822222,,,0.020851,,,,,,0.022428,,,,,,0.026557,,,,,,-0.109074,,,,,,0.095410,,,,,,-0.097506,,,,,,0.000000,,,,,,0.015410,,,,,,-0.025948,,,,
0.844444,,,0.015964,,,,,,0.014409,,,,,,0.028850,,,,,,-0.096733,,,,,,0.087075,,,,,,-0.090652,,,,,,0.000000,,,,,,0.004538,,,,,,-0.018889,,,,
0.866667,,,0.008761,,,,,,0.009366,,,,,,0.023298,,,,,,-0.083814,,,,,,0.079168,,,,,,-0.083487,,,,,,0.000000,,,,,,-0.006582,,,,,,-0.009900,,,,
0.888889,,,0.006992,,,,,,0.006971,,,,,,0.012599,,,,,,-0.074655,,,,,,0.072971,,,,,,-0.072895,,,,,,0.000000,,,,,,-0.006462,,,,,,-0.004016,,,,
0.933333,,,0.000384,,,,,,0.003334,,,,,,0.011423,,,,,,-0.068677,,,,,,0.061004,,,,,,-0.068845,,,,,,0.000000,,,,,,-0.006384,,,,,,-0.000222,,,,
0.955556,,,-0.005073,,,,,,-0.000408,,,,,,0.012532,,,,,,-0.056240,,,,,,0.045404,,,,,,-0.058876,,,,,,0.000000,,,,,,-0.006436,,,,,,0.001229,,,,
0.977778,,,-0.011370,,,,,,-0.009432,,,,,,0.013056,,,,,,-0.043225,,,,,,0.033436,,,,,,-0.043611,,,,,,0.000000,,,,,,-0.017038,,,,,,0.007743,,,,
1.000000,,,-0.017276,,,,,,-0.018367,,,,,,0.009841,,,,,,-0.030016,,,,,,0.020400,,,,,,-0.026789,,,,,,0.000000,,,,,,-0.027713,,,,,,0.015306,,,,
0.000000,,,,-0.022565,,,,,,-0.026746,,,,,,0.004474,,,,,,0.001414,,,,,,0.008006,,,,,,0.007168,,,,,,0.000000,,,,,,-0.027730,,,,,,0.012647,,,
0.020833,,,,-0.020030,,,,,,-0.025531,,,,,,0.022419,,,,,,0.018865,,,,,,-0.014006,,,,,,0.014956,,,,,,0.000000,,,,,,-0.027834,,,,,,0.005188,,,
0.041667,,,,-0.017761,,,,,,-0.024081,,,,,,0.039080,,,,,,0.030434,,,,,,-0.031102,,,,,,0.022121,,,,,,0.000000,,,,,,-0.027973,,,,,,-0.001571,,,
0.062500,,,,-0.012842,,,,,,-0.019669,,,,,,0.056486,,,,,,0.043064,,,,,,-0.046275,,,,,,0.030221,,,,,,0.000000,,,,,,-0.017223,,,,,,-0.014952,,,
0.104167,,,,-0.010683,,,,,,-0.018034,,,,,,0.070429,,,,,,0.058394,,,,,,-0.062089,,,,,,0.040813,,,,,,0.000000,,,,,,-0.017343,,,,,,-0.019305,,,
0.125000,,,,-0.004024,,,,,,-0.012032,,,,,,0.084698,,,,,,0.066396,,,,,,-0.073415,,,,,,0.023367,,,,,,0.000000,,,,,,-0.006888,,,,,,-0.028050,,,
0.145833,,,,0.003376,,,,,,-0.005603,,,,,,0.098995,,,,,,0.072085,,,,,,-0.069782,,,,,,0.005922,,,,,,0.000000,,,,,,0.003502,,,,,,-0.037619,,,
0.166667,,,,0.005636,,,,,,-0.004515,,,,,,0.116069,,,,,,0.087993,,,,,,-0.087519,,,,,,0.015891,,,,,,0.000000,,,,,,0.003393,,,,,,-0.043826,,,
0.187500,,,,0.013251,,,,,,0.001155,,,,,,0.145134,,,,,,0.117181,,,,,,-0.121150,,,,,,0.027768,,,,,,0.000000,,,,,,0.007066,,,,,,-0.058504,,,
0.208333,,,,0.020869,,,,,,0.010632,,,,,,0.136939,,,,,,0.121351,,,,,,-0.128550,,,,,,0.033336,,,,,,0.000000,,,,,,0.024202,,,,,,-0.056231,,,
0.229167,,,,0.029141,,,,,,0.020293,,,,,,0.114716,,,,,,0.106986,,,,,,-0.114659,,,,,,0.018071,,,,,,0.000000,,,,,,0.034800,,,,,,-0.055968,,,
0.250000,,,,0.033219,,,,,,0.026565,,,,,,0.095841,,,,,,0.094452,,,,,,-0.098418,,,,,,0.005922,,,,,,0.000000,,,,,,0.034513,,,,,,-0.050388,,,
0.270833,,,,0.038434,,,,,,0.035383,,,,,,0.081345,,,,,,0.076327,,,,,,-0.086023,,,,,,-0.012770,,,,,,0.000000,,,,,,0.045113,,,,,,-0.051203,,,
0.312500,,,,0.039559,,,,,,0.039675,,,,,,0.069178,,,,,,0.065721,,,,,,-0.078116,,,,,,-0.004670,,,,,,0.000000,,,,,,0.045139,,,,,,-0.050961,,,
0.333333,,,,0.040109,,,,,,0.043675,,,,,,0.057090,,,,,,0.059647,,,,,,-0.082177,,,,,,0.010283,,,,,,0.000000,,,,,,0.045201,,,,,,-0.051371,,,
0.354167,,,,0.045651,,,,,,0.053238,,,,,,0.039472,,,,,,0.043739,,,,,,-0.064012,,,,,,-0.000620,,,,,,0.000000,,,,,,0.055799,,,,,,-0.049278,,,
0.375000,,,,0.051450,,,,,,0.061652,,,,,,0.024851,,,,,,0.027928,,,,,,-0.043710,,,,,,-0.009032,,,,,,0.000000,,,,,,0.066476,,,,,,-0.050174,,,
0.395833,,,,0.055878,,,,,,0.069916,,,,,,-0.003376,,,,,,-0.005600,,,,,,0.000259,,,,,,-0.026205,,,,,,0.000000,,,,,,0.066524,,,,,,-0.052230,,,
0.416667,,,,0.057524,,,,,,0.069973,,,,,,-0.006015,,,,,,-0.005045,,,,,,0.008006,,,,,,-0.013705,,,,,,0.000000,,,,,,0.066547,,,,,,-0.051478,,,
0.437500,,,,0.058080,,,,,,0.070166,,,,,,-0.009092,,,,,,-0.004756,,,,,,0.005655,,,,,,-0.008409,,,,,,0.000000,,,,,,0.066543,,,,,,-0.052151,,,
0.458333,,,,0.059164,,,,,,0.070464,,,,,,-0.014793,,,,,,-0.001285,,,,,,0.007578,,,,,,0.000626,,,,,,0.000000,,,,,,0.066552,,,,,,-0.051788,,,
0.479167,,,,0.061464,,,,,,0.071260,,,,,,-0.022247,,,,,,0.002378,,,,,,0.009502,,,,,,0.011841,,,,,,0.000000,,,,,,0.066489,,,,,,-0.051189,,,
0.520833,,,,0.063426,,,,,,0.072006,,,,,,-0.029352,,,,,,0.003921,,,,,,0.008219,,,,,,0.017137,,,,,,0.000000,,,,,,0.066493,,,,,,-0.049741,,,
0.541667,,,,0.065828,,,,,,0.072305,,,,,,-0.033983,,,,,,0.005174,,,,,,0.006510,,,,,,0.021498,,,,,,0.000000,,,,,,0.066493,,,,,,-0.053180,,,
0.562500,,,,0.065601,,,,,,0.071915,,,,,,-0.039006,,,,,,0.005849,,,,,,0.004586,,,,,,0.023990,,,,,,0.000000,,,,,,0.066554,,,,,,-0.053129,,,
0.583333,,,,0.063223,,,,,,0.070687,,,,,,-0.041036,,,,,,0.005078,,,,,,0.003091,,,,,,0.025548,,,,,,0.000000,,,,,,0.066796,,,,,,-0.052346,,,
0.604167,,,,0.061582,,,,,,0.070439,,,,,,-0.041540,,,,,,0.009802,,,,,,-0.002626,,,,,,0.031272,,,,,,0.000000,,,,,,0.066790,,,,,,-0.054761,,,
0.625000,,,,0.053129,,,,,,0.063355,,,,,,-0.040627,,,,,,0.009513,,,,,,-0.003534,,,,,,0.035206,,,,,,0.000000,,,,,,0.045297,,,,,,-0.047345,,,
0.645833,,,,0.043465,,,,,,0.053519,,,,,,-0.031110,,,,,,0.005753,,,,,,0.003304,,,,,,0.033025,,,,,,0.000000,,,,,,0.034725,,,,,,-0.042843,,,
0.666667,,,,0.032819,,,,,,0.043078,,,,,,-0.022473,,,,,,0.001125,,,,,,0.006296,,,,,,0.029598,,,,,,0.000000,,,,,,0.024270,,,,,,-0.034023,,,
0.687500,,,,0.022769,,,,,,0.032397,,,,,,-0.014089,,,,,,-0.008420,,,,,,0.011211,,,,,,0.018383,,,,,,0.000000,,,,,,0.013700,,,,,,-0.029037,,,
0.729167,,,,0.011854,,,,,,0.022429,,,,,,0.003331,,,,,,-0.015554,,,,,,0.021896,,,,,,0.011529,,,,,,0.000000,,,,,,0.003192,,,,,,-0.019369,,,
0.750000,,,,0.002535,,,,,,0.012737,,,,,,0.021817,,,,,,-0.022207,,,,,,0.031299,,,,,,0.004053,,,,,,0.000000,,,,,,-0.007432,,,,,,-0.013720,,,
0.770833,,,,-0.004361,,,,,,0.004237,,,,,,0.034519,,,,,,-0.028281,,,,,,0.039634,,,,,,-0.004359,,,,,,0.000000,,,,,,-0.018236,,,,,,-0.009364,,,
0.791667,,,,-0.015179,,,,,,-0.005907,,,,,,0.043337,,,,,,-0.033390,,,,,,0.047113,,,,,,-0.013393,,,,,,0.000000,,,,,,-0.028680,,,,,,0.001211,,,
0.812500,,,,-0.027417,,,,,,-0.018973,,,,,,0.062328,,,,,,-0.043670,,,,,,0.063007,,,,,,-0.030060,,,,,,0.000000,,,,,,-0.028213,,,,,,0.012955,,,
0.833333,,,,-0.028475,,,,,,-0.019293,,,,,,0.059764,,,,,,-0.042646,,,,,,0.063568,,,,,,-0.031150,,,,,,0.000000,,,,,,-0.028188,,,,,,0.015400,,,
0.854167,,,,-0.029353,,,,,,-0.019916,,,,,,0.054736,,,,,,-0.039272,,,,,,0.062500,,,,,,-0.029904,,,,,,0.000000,,,,,,-0.028166,,,,,,0.017576,,,
0.875000,,,,-0.030428,,,,,,-0.020209,,,,,,0.050051,,,,,,-0.031077,,,,,,0.059722,,,,,,-0.021804,,,,,,0.000000,,,,,,-0.028093,,,,,,0.022443,,,
0.895833,,,,-0.030876,,,,,,-0.021392,,,,,,0.036084,,,,,,-0.025195,,,,,,0.050532,,,,,,-0.018689,,,,,,0.000000,,,,,,-0.028048,,,,,,0.023169,,,
0.937500,,,,-0.032216,,,,,,-0.022417,,,,,,0.021167,,,,,,-0.019796,,,,,,0.042198,,,,,,-0.015574,,,,,,0.000000,,,,,,-0.027963,,,,,,0.028719,,,
0.958333,,,,-0.034301,,,,,,-0.024038,,,,,,0.011479,,,,,,-0.014783,,,,,,0.034291,,,,,,-0.011524,,,,,,0.000000,,,,,,-0.027876,,,,,,0.033629,,,
0.979167,,,,-0.034888,,,,,,-0.024584,,,,,,0.005817,,,,,,-0.010541,,,,,,0.026170,,,,,,-0.006539,,,,,,0.000000,,,,,,-0.027908,,,,,,0.033878,,,
1.000000,,,,-0.035023,,,,,,-0.025032,,,,,,0.000821,,,,,,-0.006588,,,,,,0.019973,,,,,,-0.001866,,,,,,0.000000,,,,,,-0.027920,,,,,,0.033338,,,
0.000000,,,,,-0.035500,,,,,,-0.028140,,,,,,-0.010954,,,,,,0.001511,,,,,,-0.010586,,,,,,0.008102,,,,,,0.000000,,,,,,-0.027628,,,,,,0.049097,,
0.021277,,,,,-0.033550,,,,,,-0.027297,,,,,,-0.002838,,,,,,0.001125,,,,,,-0.014647,,,,,,0.011218,,,,,,0.000000,,,,,,-0.027729,,,,,,0.040386,,
0.063830,,,,,-0.031724,,,,,,-0.026548,,,,,,0.003405,,,,,,0.000739,,,,,,-0.018066,,,,,,0.014645,,,,,,0.000000,,,,,,-0.027749,,,,,,0.037807,,
0.085106,,,,,-0.026630,,,,,,-0.023445,,,,,,0.017001,,,,,,0.000354,,,,,,-0.021058,,,,,,0.018383,,,,,,0.000000,,,,,,-0.016750,,,,,,0.017740,,
0.106383,,,,,-0.020927,,,,,,-0.018822,,,,,,0.030013,,,,,,-0.000321,,,,,,-0.027683,,,,,,0.019941,,,,,,0.000000,,,,,,-0.006041,,,,,,-0.001225,,
0.127660,,,,,-0.019016,,,,,,-0.018246,,,,,,0.036055,,,,,,-0.000996,,,,,,-0.036017,,,,,,0.021498,,,,,,0.000000,,,,,,-0.006023,,,,,,-0.002190,,
0.148936,,,,,-0.007629,,,,,,-0.010856,,,,,,0.058580,,,,,,-0.001695,,,,,,-0.060326,,,,,,0.027067,,,,,,0.000000,,,,,,0.008469,,,,,,-0.024747,,
0.170213,,,,,0.006201,,,,,,-0.000763,,,,,,0.076250,,,,,,0.000739,,,,,,-0.024050,,,,,,0.021810,,,,,,0.000000,,,,,,0.025138,,,,,,-0.039219,,
0.191489,,,,,0.018901,,,,,,0.010368,,,,,,0.063754,,,,,,-0.001864,,,,,,-0.019562,,,,,,0.011529,,,,,,0.000000,,,,,,0.035532,,,,,,-0.048039,,
0.212766,,,,,0.030719,,,,,,0.020560,,,,,,0.047682,,,,,,-0.002442,,,,,,-0.017211,,,,,,0.005610,,,,,,0.000000,,,,,,0.046072,,,,,,-0.049999,,
0.234043,,,,,0.043734,,,,,,0.030998,,,,,,0.035963,,,,,,-0.002924,,,,,,-0.015074,,,,,,-0.000309,,,,,,0.000000,,,,,,0.056573,,,,,,-0.062114,,
0.276596,,,,,0.052417,,,,,,0.039576,,,,,,0.013998,,,,,,-0.003503,,,,,,-0.013792,,,,,,-0.006539,,,,,,0.000000,,,,,,0.055949,,,,,,-0.049818,,
0.297872,,,,,0.061095,,,,,,0.046525,,,,,,-0.006522,,,,,,-0.005045,,,,,,-0.007167,,,,,,-0.012147,,,,,,0.000000,,,,,,0.055611,,,,,,-0.040142,,
0.319149,,,,,0.072606,,,,,,0.057093,,,,,,-0.019663,,,,,,-0.006781,,,,,,0.001595,,,,,,-0.018689,,,,,,0.000000,,,,,,0.066055,,,,,,-0.048151,,
0.340426,,,,,0.078376,,,,,,0.062734,,,,,,-0.041300,,,,,,-0.009287,,,,,,0.014417,,,,,,-0.026477,,,,,,0.000000,,,,,,0.066015,,,,,,-0.042553,,
0.361702,,,,,0.088413,,,,,,0.073436,,,,,,-0.083962,,,,,,-0.017314,,,,,,-0.001183,,,,,,-0.036368,,,,,,0.000000,,,,,,0.066165,,,,,,-0.039805,,
0.382979,,,,,0.086020,,,,,,0.073812,,,,,,-0.078635,,,,,,-0.018157,,,,,,-0.000115,,,,,,-0.038627,,,,,,0.000000,,,,,,0.066200,,,,,,-0.038165,,
0.404255,,,,,0.082361,,,,,,0.074206,,,,,,-0.072352,,,,,,-0.018254,,,,,,-0.000115,,,,,,-0.039250,,,,,,0.000000,,,,,,0.066245,,,,,,-0.035939,,
0.425532,,,,,0.077769,,,,,,0.074481,,,,,,-0.068507,,,,,,-0.018447,,,,,,0.001595,,,,,,-0.040185,,,,,,0.000000,,,,,,0.066247,,,,,,-0.030274,,
0.446809,,,,,0.074387,,,,,,0.074198,,,,,,-0.061968,,,,,,-0.016904,,,,,,0.002022,,,,,,-0.026477,,,,,,0.000000,,,,,,0.066359,,,,,,-0.033111,,
0.489362,,,,,0.070825,,,,,,0.074242,,,,,,-0.056818,,,,,,-0.015747,,,,,,-0.000756,,,,,,-0.025543,,,,,,0.000000,,,,,,0.066432,,,,,,-0.032704,,
0.510638,,,,,0.067536,,,,,,0.074801,,,,,,-0.053265,,,,,,-0.014397,,,,,,-0.003534,,,,,,-0.023985,,,,,,0.000000,,,,,,0.066419,,,,,,-0.033509,,
0.531915,,,,,0.063070,,,,,,0.075079,,,,,,-0.050956,,,,,,-0.012662,,,,,,-0.003107,,,,,,-0.021493,,,,,,0.000000,,,,,,0.066484,,,,,,-0.032700,,
0.553191,,,,,0.059682,,,,,,0.075314,,,,,,-0.049864,,,,,,-0.011119,,,,,,-0.004175,,,,,,-0.017131,,,,,,0.000000,,,,,,0.066513,,,,,,-0.031767,,
0.574468,,,,,0.054213,,,,,,0.075456,,,,,,-0.047499,,,,,,-0.007769,,,,,,-0.007675,,,,,,-0.005527,,,,,,0.000000,,,,,,0.066604,,,,,,-0.031613,,
0.595745,,,,,0.049704,,,,,,0.070875,,,,,,-0.048119,,,,,,-0.009673,,,,,,-0.010586,,,,,,-0.003424,,,,,,0.000000,,,,,,0.067496,,,,,,-0.037982,,
0.617021,,,,,0.042231,,,,,,0.062618,,,,,,-0.033039,,,,,,-0.022014,,,,,,-0.005885,,,,,,-0.014639,,,,,,0.000000,,,,,,0.068132,,,,,,-0.037917,,
0.638298,,,,,0.033636,,,,,,0.054244,,,,,,-0.018790,,,,,,-0.038211,,,,,,0.002877,,,,,,-0.039873,,,,,,0.000000,,,,,,0.057370,,,,,,-0.033366,,
0.659574,,,,,0.024878,,,,,,0.044181,,,,,,-0.005958,,,,,,-0.052287,,,,,,0.012066,,,,,,-0.048596,,,,,,0.000000,,,,,,0.046938,,,,,,-0.027173,,
0.702128,,,,,0.017225,,,,,,0.035421,,,,,,0.010602,,,,,,-0.065881,,,,,,0.019973,,,,,,-0.057007,,,,,,0.000000,,,,,,0.036235,,,,,,-0.026259,,
0.723404,,,,,0.010721,,,,,,0.027185,,,,,,0.028295,,,,,,-0.064724,,,,,,0.024033,,,,,,-0.052957,,,,,,0.000000,,,,,,0.025530,,,,,,-0.026632,,
0.744681,,,,,0.002713,,,,,,0.016663,,,,,,0.042356,,,,,,-0.078029,,,,,,0.029162,,,,,,-0.062926,,,,,,0.000000,,,,,,0.015130,,,,,,-0.019158,,
0.765957,,,,,-0.004606,,,,,,0.006423,,,,,,0.056343,,,,,,-0.090949,,,,,,0.035360,,,,,,-0.073830,,,,,,0.000000,,,,,,0.004708,,,,,,-0.011829,,
0.787234,,,,,-0.015244,,,,,,-0.007238,,,,,,0.084932,,,,,,-0.113413,,,,,,0.051708,,,,,,-0.097701,,,,,,0.000000,,,,,,-0.016014,,,,,,-0.001798,,
0.808511,,,,,-0.016577,,,,,,-0.010508,,,,,,0.075860,,,,,,-0.114280,,,,,,0.051601,,,,,,-0.102179,,,,,,0.000000,,,,,,-0.028414,,,,,,0.007052,,
0.829787,,,,,-0.018097,,,,,,-0.013504,,,,,,0.064774,,,,,,-0.099047,,,,,,0.044121,,,,,,-0.086914,,,,,,0.000000,,,,,,-0.028138,,,,,,0.011694,,
0.851064,,,,,-0.020181,,,,,,-0.014975,,,,,,0.054320,,,,,,-0.084007,,,,,,0.041130,,,,,,-0.074453,,,,,,0.000000,,,,,,-0.028171,,,,,,0.015783,,
0.872340,,,,,-0.022355,,,,,,-0.017818,,,,,,0.042189,,,,,,-0.069642,,,,,,0.035573,,,,,,-0.061369,,,,,,0.000000,,,,,,-0.027930,,,,,,0.023574,,
0.914894,,,,,-0.025018,,,,,,-0.021288,,,,,,0.029611,,,,,,-0.070220,,,,,,0.030444,,,,,,-0.060746,,,,,,0.000000,,,,,,-0.027670,,,,,,0.031617,,
0.936170,,,,,-0.027085,,,,,,-0.022374,,,,,,0.020866,,,,,,-0.055951,,,,,,0.026170,,,,,,-0.047350,,,,,,0.000000,,,,,,-0.027724,,,,,,0.032211,,
0.957447,,,,,-0.029822,,,,,,-0.023645,,,,,,0.012194,,,,,,-0.041682,,,,,,0.022751,,,,,,-0.033954,,,,,,0.000000,,,,,,-0.027783,,,,,,0.033347,,
0.978723,,,,,-0.032820,,,,,,-0.026100,,,,,,0.000488,,,,,,-0.027991,,,,,,0.022751,,,,,,-0.019001,,,,,,0.000000,,,,,,-0.027603,,,,,,0.041640,,
1.000000,,,,,-0.036915,,,,,,-0.028478,,,,,,-0.014747,,,,,,-0.001261,,,,,,0.018531,,,,,,0.011646,,,,,,0.000000,,,,,,-0.027607,,,,,,0.046679,,
0.000000,,,,,,-0.037446,,,,,,-0.028919,,,,,,-0.016486,,,,,,0.000643,,,,,,0.001167,,,,,,0.005610,,,,,,0.000000,,,,,,-0.027578,,,,,,0.047981,
0.023256,,,,,,-0.036938,,,,,,-0.027514,,,,,,-0.012765,,,,,,0.000739,,,,,,0.001167,,,,,,0.005922,,,,,,0.000000,,,,,,-0.027809,,,,,,0.040615,
0.046512,,,,,,-0.035060,,,,,,-0.025377,,,,,,-0.007254,,,,,,0.018865,,,,,,-0.021699,,,,,,0.011529,,,,,,0.000000,,,,,,-0.016747,,,,,,0.028185,
0.069767,,,,,,-0.034789,,,,,,-0.025697,,,,,,-0.007770,,,,,,0.035737,,,,,,-0.031743,,,,,,0.013710,,,,,,0.000000,,,,,,-0.016704,,,,,,0.029056,
0.093023,,,,,,-0.033744,,,,,,-0.025398,,,,,,-0.003755,,,,,,0.040281,,,,,,-0.036524,,,,,,0.015151,,,,,,0.000000,,,,,,-0.015330,,,,,,0.021949,
0.116279,,,,,,-0.033176,,,,,,-0.025903,,,,,,-0.004445,,,,,,0.035930,,,,,,-0.032170,,,,,,0.014022,,,,,,0.000000,,,,,,-0.016668,,,,,,0.022712,
0.139535,,,,,,-0.020455,,,,,,-0.014924,,,,,,-0.013169,,,,,,0.040654,,,,,,-0.029820,,,,,,0.002183,,,,,,0.000000,,,,,,-0.006239,,,,,,0.011378,
0.162791,,,,,,-0.007867,,,,,,-0.003779,,,,,,-0.021551,,,,,,0.045186,,,,,,-0.027469,,,,,,-0.009966,,,,,,0.000000,,,,,,0.004145,,,,,,-0.001523,
0.186047,,,,,,0.004449,,,,,,0.006646,,,,,,-0.031965,,,,,,0.049621,,,,,,-0.025546,,,,,,-0.022116,,,,,,0.000000,,,,,,0.014650,,,,,,-0.010119,
0.232558,,,,,,0.015482,,,,,,0.016078,,,,,,-0.045288,,,,,,0.053573,,,,,,-0.026614,,,,,,-0.034577,,,,,,0.000000,,,,,,0.025290,,,,,,-0.012741,
0.255814,,,,,,0.025970,,,,,,0.024716,,,,,,-0.059778,,,,,,0.039208,,,,,,-0.005244,,,,,,-0.052334,,,,,,0.000000,,,,,,0.024636,,,,,,-0.012895,
0.279070,,,,,,0.038483,,,,,,0.035900,,,,,,-0.068977,,,,,,0.026000,,,,,,0.002877,,,,,,-0.066665,,,,,,0.000000,,,,,,0.035046,,,,,,-0.022503,
0.302326,,,,,,0.050041,,,,,,0.046972,,,,,,-0.079953,,,,,,0.026674,,,,,,0.007578,,,,,,-0.066353,,,,,,0.000000,,,,,,0.045452,,,,,,-0.029970,
0.325581,,,,,,0.069491,,,,,,0.069984,,,,,,-0.097319,,,,,,0.029651,,,,,,0.018290,,,,,,-0.075271,,,,,,0.000000,,,,,,0.066299,,,,,,-0.046068,
0.348837,,,,,,0.071629,,,,,,0.070054,,,,,,-0.096287,,,,,,0.031977,,,,,,0.018905,,,,,,-0.076945,,,,,,0.000000,,,,,,0.066259,,,,,,-0.048525,
0.372093,,,,,,0.070890,,,,,,0.070854,,,,,,-0.088692,,,,,,0.025807,,,,,,0.013348,,,,,,-0.067288,,,,,,0.000000,,,,,,0.066270,,,,,,-0.046581,
0.395349,,,,,,0.070419,,,,,,0.071437,,,,,,-0.080741,,,,,,0.019154,,,,,,0.009288,,,,,,-0.056384,,,,,,0.000000,,,,,,0.066282,,,,,,-0.047408,
0.418605,,,,,,0.070902,,,,,,0.072068,,,,,,-0.073253,,,,,,0.012791,,,,,,0.007792,,,,,,-0.044234,,,,,,0.000000,,,,,,0.066284,,,,,,-0.048012,
0.465116,,,,,,0.070957,,,,,,0.072379,,,,,,-0.065096,,,,,,0.006621,,,,,,0.006082,,,,,,-0.031773,,,,,,0.000000,,,,,,0.066319,,,,,,-0.048196,
0.488372,,,,,,0.071142,,,,,,0.072408,,,,,,-0.056390,,,,,,0.000739,,,,,,0.003732,,,,,,-0.019624,,,,,,0.000000,,,,,,0.066334,,,,,,-0.051951,
0.511628,,,,,,0.070190,,,,,,0.070856,,,,,,-0.046952,,,,,,-0.001960,,,,,,-0.004816,,,,,,-0.020558,,,,,,0.000000,,,,,,0.066660,,,,,,-0.057266,
0.534884,,,,,,0.074161,,,,,,0.069695,,,,,,-0.041297,,,,,,-0.020664,,,,,,-0.003962,,,,,,-0.037069,,,,,,0.000000,,,,,,0.066656,,,,,,-0.061845,
0.558140,,,,,,0.067409,,,,,,0.065899,,,,,,-0.024971,,,,,,-0.053866,,,,,,0.009876,,,,,,-0.030060,,,,,,0.000000,,,,,,0.054772,,,,,,-0.060729,
0.581395,,,,,,0.056293,,,,,,0.055389,,,,,,-0.032013,,,,,,-0.049588,,,,,,0.006723,,,,,,-0.028346,,,,,,0.000000,,,,,,0.034928,,,,,,-0.051540,
0.604651,,,,,,0.043285,,,,,,0.043664,,,,,,-0.018741,,,,,,-0.055276,,,,,,0.018905,,,,,,-0.021804,,,,,,0.000000,,,,,,0.024452,,,,,,-0.044230,
0.627907,,,,,,0.032975,,,,,,0.032673,,,,,,-0.020144,,,,,,-0.061254,,,,,,0.021896,,,,,,-0.020247,,,,,,0.000000,,,,,,0.013989,,,,,,-0.036443,
0.651163,,,,,,0.020186,,,,,,0.022195,,,,,,-0.016036,,,,,,-0.067135,,,,,,0.025316,,,,,,-0.019935,,,,,,0.000000,,,,,,0.003518,,,,,,-0.023526,
0.697674,,,,,,0.007977,,,,,,0.011861,,,,,,-0.011071,,,,,,-0.073112,,,,,,0.031513,,,,,,-0.021181,,,,,,0.000000,,,,,,-0.006945,,,,,,-0.013823,
0.720930,,,,,,-0.001254,,,,,,0.003505,,,,,,0.002882,,,,,,-0.078801,,,,,,0.041984,,,,,,-0.024608,,,,,,0.000000,,,,,,-0.017695,,,,,,-0.002102,
0.744186,,,,,,-0.014220,,,,,,-0.006424,,,,,,0.018053,,,,,,-0.066363,,,,,,0.040916,,,,,,-0.012770,,,,,,0.000000,,,,,,-0.028133,,,,,,0.009658,
0.767442,,,,,,-0.025316,,,,,,-0.014299,,,,,,0.035140,,,,,,-0.053444,,,,,,0.029376,,,,,,-0.002801,,,,,,0.000000,,,,,,-0.027933,,,,,,0.019672,
0.790698,,,,,,-0.040747,,,,,,-0.026030,,,,,,0.070946,,,,,,-0.059832,,,,,,0.044014,,,,,,0.001482,,,,,,0.000000,,,,,,-0.027707,,,,,,0.028555,
0.813953,,,,,,-0.042684,,,,,,-0.027076,,,,,,0.075961,,,,,,-0.045153,,,,,,0.029376,,,,,,-0.003113,,,,,,0.000000,,,,,,-0.027713,,,,,,0.031972,
0.837209,,,,,,-0.044082,,,,,,-0.027346,,,,,,0.079593,,,,,,-0.036861,,,,,,0.031086,,,,,,-0.004670,,,,,,0.000000,,,,,,-0.027673,,,,,,0.034600,
0.860465,,,,,,-0.043520,,,,,,-0.027753,,,,,,0.076307,,,,,,-0.028570,,,,,,0.031727,,,,,,-0.004359,,,,,,0.000000,,,,,,-0.027670,,,,,,0.034560,
0.883721,,,,,,-0.043408,,,,,,-0.028352,,,,,,0.073303,,,,,,-0.020375,,,,,,0.030444,,,,,,-0.002178,,,,,,0.000000,,,,,,-0.027662,,,,,,0.036005,
0.930233,,,,,,-0.044433,,,,,,-0.029347,,,,,,0.060761,,,,,,-0.012758,,,,,,0.025102,,,,,,0.002806,,,,,,0.000000,,,,,,-0.027665,,,,,,0.037425,
0.953488,,,,,,-0.042403,,,,,,-0.030008,,,,,,0.048578,,,,,,-0.006395,,,,,,0.016981,,,,,,0.008414,,,,,,0.000000,,,,,,-0.027668,,,,,,0.035292,
0.976744,,,,,,-0.038816,,,,,,-0.029734,,,,,,0.031905,,,,,,-0.002539,,,,,,0.011852,,,,,,0.010595,,,,,,0.000000,,,,,,-0.027659,,,,,,0.035619,
1.000000,,,,,,-0.035301,,,,,,-0.029444,,,,,,0.015272,,,,,,0.000450,,,,,,0.009074,,,,,,0.010595,,,,,,0.000000,,,,,,-0.027622,,,,,,0.037114,
