time,ax,ay,az,gx,gy,gz,mx,my,mz,
52060.4,0.08,-0.01,0.91,0.16,-0.05,0.06,8.66,-1.71,12.72,
52060.5,0.07,-0.02,0.89,-0.24,0.20,-0.18,6.98,-2.56,13.31,
52060.6,0.11,-0.01,0.94,0.05,-0.02,-0.06,8.32,-1.68,14.67,
52060.7,0.11,-0.02,0.89,0.02,0.09,-0.06,7.47,-1.88,12.55,
52060.8,0.13,-0.04,0.83,0.20,0.27,-0.29,8.54,-2.05,14.00,
52060.9,0.10,-0.09,0.87,-0.06,0.27,-0.61,9.18,-2.22,13.89,
52061.0,0.06,-0.04,0.83,-0.27,0.21,-0.68,7.81,-1.19,14.56,
52061.1,-0.06,-0.14,0.91,-0.50,0.27,-0.78,8.63,1.45,12.79,
52061.2,-0.09,-0.07,0.96,-0.33,0.28,-1.02,8.35,4.76,13.37,
52061.3,-0.13,0.00,0.91,-0.34,0.50,-0.99,6.36,6.36,13.37,
52061.4,-0.18,-0.13,0.95,-0.31,0.60,-0.89,7.28,8.74,12.05,
52061.5,-0.20,-0.35,1.38,-1.18,-0.78,-0.91,6.78,11.47,12.89,
52061.6,0.13,-0.26,0.95,-0.28,0.33,-0.22,3.90,16.66,13.74,
52061.7,-0.18,-0.22,0.49,-0.08,0.40,0.03,3.77,17.61,14.97,
52061.8,-0.11,-0.23,1.23,-0.78,0.01,-0.49,5.07,18.99,16.91,
52061.9,-0.20,-0.19,0.69,-0.01,-0.38,0.01,4.56,19.68,15.57,
52062.0,-0.03,-0.34,0.68,-0.10,-1.19,0.11,2.67,17.97,15.23,
52062.1,0.03,-0.31,1.42,0.63,0.36,-0.04,-0.43,18.60,15.72,
52062.2,0.01,-0.34,0.87,-0.09,-0.01,-0.16,2.69,18.51,14.61,
52062.3,-0.19,-0.36,0.75,-0.07,0.08,0.14,1.99,17.97,15.90,
52062.4,-0.07,-0.30,0.90,0.10,-0.23,0.21,2.98,18.15,14.38,
52062.5,-0.04,-0.20,0.98,-0.07,0.23,0.00,2.50,17.80,15.07,
52062.6,-0.14,-0.27,0.79,-0.10,-0.19,0.07,3.87,19.12,15.44,
52062.7,-0.08,-0.33,0.84,-0.02,-0.01,0.04,4.37,17.93,15.61,
52062.8,-0.12,-0.30,0.90,0.10,0.18,-0.09,3.87,18.82,16.74,
52062.9,-0.11,-0.24,0.89,0.07,-0.00,-0.06,3.79,18.88,14.99,
52063.0,-0.12,-0.27,0.88,0.00,0.13,0.01,3.70,18.44,15.16,
52063.1,-0.11,-0.29,0.89,0.01,-0.16,0.13,4.67,18.35,15.38,
52063.2,-0.10,-0.27,0.89,-0.01,-0.00,0.03,4.41,17.65,14.56,
52063.3,-0.09,-0.27,0.88,-0.01,0.00,-0.01,4.73,17.90,15.17,
52063.4,-0.12,-0.27,0.87,0.00,0.09,-0.01,5.24,17.11,14.40,
52063.5,-0.11,-0.27,0.87,0.00,0.00,0.01,4.19,17.43,15.95,
52063.6,-0.11,-0.27,0.88,-0.01,0.02,0.02,4.56,18.14,13.73,
52063.7,-0.11,-0.28,0.87,-0.01,0.04,0.04,4.57,18.17,16.36,
52063.8,-0.12,-0.27,0.88,-0.01,0.00,0.02,5.91,17.44,15.02,
52063.9,-0.12,-0.28,0.87,-0.01,0.03,0.01,5.41,18.31,15.23,
52064.0,-0.14,-0.29,0.87,0.01,-0.02,0.03,4.00,16.88,14.58,
52064.1,-0.19,-0.36,0.81,-0.04,-0.22,0.06,4.73,17.97,14.56,
52064.2,-0.05,-0.16,0.91,-0.14,0.49,0.23,4.39,17.28,15.90,
52064.3,-0.12,-0.20,1.00,0.28,0.17,0.22,7.43,18.00,16.15,
52064.4,-0.21,-0.15,0.78,-0.23,-0.76,0.12,7.81,17.28,14.90,
52064.5,0.08,-0.26,0.94,-0.14,-0.49,-0.08,5.16,17.80,14.23,
52064.6,-0.15,-0.33,0.90,0.15,-0.19,0.15,5.41,15.57,15.90,
52064.7,0.00,-0.18,0.81,-0.04,-0.28,-0.09,6.61,15.06,14.73,
52064.8,-0.12,-0.31,0.87,0.07,-0.27,-0.02,5.57,12.53,15.65,
52064.9,0.01,-0.29,0.82,-0.29,-0.33,0.21,4.39,11.81,14.56,
52065.0,-0.02,-0.36,0.75,-0.46,0.25,0.30,6.08,12.48,14.09,
52065.1,0.01,-0.42,0.97,-0.76,0.10,0.16,7.12,14.54,17.24,
52065.2,0.10,-0.45,1.02,-0.55,-0.32,-0.50,7.30,14.72,17.41,
52065.3,-0.05,-0.60,0.86,-0.73,0.31,-0.46,5.64,16.69,21.91,
52065.4,-0.06,-0.32,0.37,-0.08,0.21,-0.05,7.81,17.63,23.95,
52065.5,-0.16,-0.32,0.56,0.13,0.66,0.54,6.44,17.63,25.96,
52065.6,0.10,-0.43,0.88,0.78,-1.14,0.38,7.98,16.77,20.09,
52065.7,0.10,-0.41,0.75,0.26,-0.05,0.79,7.98,10.95,17.75,
52065.8,-0.15,-0.40,0.85,0.36,0.70,0.59,9.46,9.47,16.18,
52065.9,-0.28,-0.43,0.73,-0.01,0.04,0.65,12.94,6.78,18.13,
52066.0,-0.17,-0.42,1.01,-0.37,0.95,0.27,12.94,5.99,17.92,
52066.1,0.17,-0.26,0.85,0.16,-1.60,0.13,14.31,4.96,19.26,
52066.2,0.14,-0.33,0.87,0.19,-0.01,-0.61,10.59,4.75,15.12,
52066.3,-0.26,-0.36,0.77,-0.44,1.02,-0.52,11.74,6.85,15.74,
52066.4,-0.28,-0.54,0.82,0.35,0.27,-0.38,12.66,8.67,17.52,
52066.5,-0.11,-0.35,0.76,-0.05,-0.34,-0.39,14.48,7.87,16.41,
52066.6,0.12,-0.29,0.84,-0.27,-0.84,-0.31,10.03,10.61,16.41,
52066.7,-0.07,-0.44,0.93,-0.04,0.33,-0.14,9.47,11.59,16.20,
52066.8,-0.06,-0.42,0.83,0.04,-0.10,0.05,7.47,11.47,17.58,
52066.9,0.04,-0.33,0.87,0.12,0.12,-0.18,8.33,12.22,16.68,
52067.0,-0.12,-0.36,0.89,0.13,0.98,-0.36,9.04,13.02,15.74,
52067.1,-0.23,-0.33,0.80,0.00,0.49,-0.03,11.23,14.54,17.58,
52067.2,-0.19,-0.33,0.81,-0.02,-0.23,0.13,12.50,13.99,17.94,
52067.3,-0.09,-0.34,0.86,-0.08,-0.02,0.09,11.74,13.01,17.08,
52067.4,-0.14,-0.36,0.84,-0.05,-0.00,0.13,12.47,13.11,16.62,
52067.5,-0.15,-0.35,0.85,0.07,-0.17,0.15,12.23,12.81,17.65,
52067.6,-0.10,-0.38,0.87,0.19,-0.25,-0.01,11.23,11.14,16.57,
52067.7,-0.09,-0.31,0.87,0.07,0.06,-0.09,11.77,11.06,17.44,
52067.8,-0.08,-0.31,0.87,0.04,-0.05,0.05,10.55,11.47,16.57,
52067.9,-0.12,-0.33,0.86,-0.00,0.20,-0.03,10.89,12.15,15.57,
52068.0,-0.11,-0.31,0.86,-0.04,-0.18,0.09,11.15,11.14,16.01,
52068.1,-0.06,-0.35,0.92,-0.21,-0.09,0.16,10.38,11.65,18.01,
52068.2,-0.16,-0.44,1.23,-0.10,0.35,0.34,12.02,13.09,16.43,
52068.3,-0.19,-0.28,1.36,1.14,-0.22,0.72,13.87,10.38,17.16,
52068.4,-0.21,-0.20,1.04,1.99,-0.88,0.92,13.97,2.57,19.26,
52068.5,-0.12,0.10,0.67,1.92,-0.97,1.08,12.87,-2.18,16.50,
52068.6,0.09,0.33,0.54,0.92,-1.45,0.74,9.16,-7.34,16.29,
52068.7,0.23,0.35,0.44,0.02,-1.23,0.51,2.85,-10.95,13.73,
52068.8,0.23,0.19,0.59,-0.61,-0.62,-0.16,-0.24,-9.23,13.39,
52068.9,0.23,0.07,0.84,-0.31,-0.14,0.01,-1.43,-6.33,14.56,
52069.0,0.28,0.13,0.89,-0.30,-0.13,-0.08,-2.47,-5.96,16.94,
52069.1,0.39,0.13,0.79,-0.34,-0.50,-0.01,-3.29,-5.04,17.39,
52069.2,0.42,0.08,0.86,-0.12,-0.03,-0.05,-4.17,-3.25,18.92,
52069.3,0.36,0.08,0.85,-0.03,1.32,-0.10,-2.69,-2.54,20.13,
52069.4,0.09,0.10,0.89,-0.19,0.41,-0.06,1.48,-1.37,19.76,
52069.5,0.33,0.14,0.92,0.31,-0.46,-0.33,1.31,-3.33,20.45,
52069.6,0.30,0.10,0.85,0.63,0.94,-0.44,0.54,-1.96,19.85,
52069.7,0.22,0.23,0.78,0.62,1.75,-0.87,3.87,-5.82,20.43,
52069.8,-0.06,0.43,0.86,1.06,2.30,-0.72,13.60,-9.84,24.00,
52069.9,-0.15,0.43,0.85,1.17,-1.02,-0.44,17.03,-14.40,27.52,
52070.0,-0.27,0.56,0.74,0.23,-0.31,-0.02,18.24,-18.13,27.80,
52070.1,-0.33,0.51,0.68,-0.18,-0.07,0.09,17.20,-16.15,25.89,
52070.2,-0.32,0.52,0.72,-0.15,-0.02,0.12,17.22,-17.79,26.80,
52070.3,-0.29,0.50,0.76,-0.31,0.07,0.12,16.71,-16.25,25.62,
52070.4,-0.35,0.44,0.75,-0.51,0.15,0.15,17.60,-16.13,25.84,
52070.5,-0.20,0.43,0.83,-0.72,-0.37,0.09,17.56,-15.05,25.46,
52070.6,-0.14,0.37,0.86,-1.06,-0.16,0.16,15.84,-11.65,25.77,
52070.7,-0.25,0.26,0.91,-0.90,-1.95,0.19,14.14,-10.60,24.78,
52070.8,0.01,0.17,0.91,-0.93,-2.23,0.39,9.69,-6.50,24.11,
52070.9,0.53,0.07,1.06,-1.16,-0.20,0.48,3.09,-3.02,20.99,
52071.0,0.15,-0.08,0.89,0.01,0.93,0.16,4.21,0.69,22.10,
52071.1,0.01,-0.07,0.92,0.55,-0.77,-0.00,5.24,0.00,20.76,
52071.2,0.27,0.01,0.84,1.02,-1.23,0.01,2.20,-1.89,18.46,
52071.3,0.31,0.17,0.68,1.22,0.97,0.04,-0.06,-5.64,15.23,
52071.4,0.17,0.32,0.61,0.61,0.76,-0.19,3.22,-9.96,14.19,
52071.5,0.14,0.47,0.64,0.25,-0.29,-0.70,3.53,-13.34,13.39,
52071.6,0.23,0.40,0.68,-0.29,0.19,-0.59,2.50,-13.00,13.06,
52071.7,0.06,0.36,0.62,-1.06,0.53,-0.84,4.73,-11.36,13.16,
52071.8,0.12,0.08,0.89,-1.66,-0.03,-0.78,4.73,-7.01,13.22,
52071.9,0.03,0.02,1.03,-1.34,1.49,-0.57,7.68,-3.16,13.44,
52072.0,-0.15,-0.14,1.13,-0.95,0.34,-0.35,11.58,-0.16,16.24,
52072.1,-0.08,-0.12,1.00,-0.86,0.14,-0.32,11.57,3.59,16.57,
52072.2,-0.11,-0.24,0.76,-0.98,0.15,-0.51,13.61,7.69,16.83,
52072.3,-0.23,-0.55,0.91,0.49,0.07,-0.11,11.57,11.12,16.91,
52072.4,-0.24,-0.40,0.94,-0.01,-0.23,-0.03,13.28,11.12,17.24,
52072.5,-0.14,-0.30,0.79,0.09,-0.18,0.17,13.98,11.79,17.27,
52072.6,-0.14,-0.32,0.87,0.08,0.05,-0.05,13.11,10.27,17.75,
52072.7,-0.16,-0.33,0.88,0.09,-0.01,-0.05,13.06,10.31,17.96,
52072.8,-0.15,-0.30,0.87,0.04,0.06,0.01,13.38,10.01,17.25,
52072.9,-0.15,-0.31,0.86,-0.01,0.04,0.02,12.94,11.12,17.24,
52073.0,-0.16,-0.31,0.87,-0.01,0.00,0.03,15.38,10.91,18.05,
52073.1,-0.15,-0.31,0.87,0.00,0.02,0.01,13.28,9.75,17.58,
52073.2,-0.16,-0.31,0.87,0.01,0.02,0.01,13.38,9.51,16.93,
52073.3,-0.16,-0.30,0.87,-0.00,0.00,0.01,14.27,9.79,17.98,
52073.4,-0.17,-0.31,0.86,0.01,0.02,0.02,14.65,8.73,16.57,
52073.5,-0.16,-0.30,0.87,0.01,0.03,0.00,15.19,9.03,16.80,
52073.6,-0.16,-0.30,0.87,0.00,-0.02,0.02,13.63,9.41,16.26,
52073.7,-0.18,-0.31,0.86,-0.02,-0.02,0.01,13.97,10.10,17.24,
52073.8,-0.14,-0.31,0.85,-0.00,-0.01,-0.01,13.72,10.35,16.48,
52073.9,-0.16,-0.29,0.86,-0.01,-0.02,-0.01,12.08,10.27,17.08,
52074.0,-0.15,-0.32,0.87,-0.02,0.01,-0.01,12.58,9.22,17.06,
52074.1,-0.15,-0.31,0.87,0.01,-0.02,0.01,13.36,10.21,15.57,
52074.2,-0.14,-0.30,0.87,0.01,-0.01,0.00,13.97,9.07,16.24,
52074.3,-0.16,-0.31,0.87,0.01,0.05,0.01,13.28,10.28,17.06,
52074.4,-0.15,-0.30,0.87,0.00,-0.01,0.02,14.23,10.84,17.42,
52074.5,-0.15,-0.31,0.87,-0.00,0.00,0.01,12.20,9.81,17.63,
52074.6,-0.15,-0.30,0.87,-0.00,0.03,0.02,13.97,10.10,17.24,
52074.7,-0.15,-0.30,0.87,-0.01,-0.04,0.03,13.11,9.93,16.74,
52074.8,-0.16,-0.32,0.86,-0.01,-0.02,0.01,12.43,7.87,15.74,
52074.9,-0.15,-0.30,0.87,-0.00,0.04,0.00,14.05,10.06,17.81,
52075.0,-0.16,-0.30,0.87,-0.01,-0.03,0.01,12.73,10.57,17.95,
52075.1,-0.16,-0.30,0.86,0.00,0.04,-0.00,12.43,10.95,17.41,
52075.2,-0.14,-0.30,0.86,-0.00,-0.00,0.01,13.28,10.44,15.90,
52075.3,-0.15,-0.30,0.87,-0.01,0.01,0.02,13.11,9.93,16.41,
52075.4,-0.15,-0.30,0.87,-0.00,0.02,0.02,13.94,9.73,17.08,
52075.5,-0.15,-0.30,0.87,0.00,-0.01,0.01,13.52,10.07,17.22,
52075.6,-0.16,-0.31,0.86,0.00,0.02,0.00,14.82,8.56,17.08,
52075.7,-0.15,-0.30,0.87,0.00,0.00,0.01,13.28,9.75,16.91,
52075.8,-0.14,-0.29,0.87,-0.00,0.02,0.01,13.76,10.84,17.12,
52075.9,-0.16,-0.30,0.87,-0.01,-0.03,0.02,14.14,10.95,17.08,
52076.0,-0.15,-0.30,0.86,0.00,0.03,-0.01,13.31,10.13,17.01,
52076.1,-0.15,-0.30,0.86,-0.00,0.01,0.01,14.14,9.93,16.41,
52076.2,-0.14,-0.30,0.87,-0.00,-0.01,0.03,14.13,9.25,18.73,
52076.3,-0.15,-0.30,0.87,-0.01,-0.02,0.02,14.60,9.71,18.81,
52076.4,-0.16,-0.31,0.87,-0.00,0.02,0.00,14.65,10.44,16.91,
52076.5,-0.15,-0.30,0.87,0.01,0.01,0.01,13.92,9.17,17.82,
52076.6,-0.16,-0.30,0.86,-0.01,-0.02,0.01,13.97,10.40,17.24,
52076.7,-0.16,-0.30,0.88,-0.00,0.02,0.01,12.80,10.23,18.05,
52076.8,-0.15,-0.30,0.87,-0.00,-0.00,0.01,15.02,10.16,17.59,
52076.9,-0.15,-0.30,0.87,-0.00,0.03,0.01,13.28,10.10,16.91,
52077.0,-0.15,-0.30,0.87,-0.00,-0.01,0.02,13.73,10.02,17.14,
52077.1,-0.15,-0.31,0.87,-0.00,-0.00,0.01,13.15,9.84,17.33,
52077.2,-0.16,-0.31,0.87,-0.01,0.02,0.01,13.46,8.97,17.36,
52077.3,-0.16,-0.31,0.86,-0.00,0.01,0.01,14.18,9.19,17.77,
52077.4,-0.16,-0.30,0.87,-0.00,0.00,0.01,12.60,10.10,16.24,
52077.5,-0.16,-0.30,0.86,0.00,0.04,0.00,13.97,10.10,16.91,
52077.6,-0.16,-0.30,0.86,-0.00,-0.02,0.01,14.92,8.76,17.36,
52077.7,-0.16,-0.30,0.87,0.00,0.04,0.00,14.03,10.16,17.97,
52077.8,-0.15,-0.30,0.87,-0.00,0.00,0.01,14.87,10.38,17.40,
52077.9,-0.15,-0.30,0.87,-0.00,0.00,0.01,13.90,9.83,16.93,
52078.0,-0.16,-0.31,0.88,-0.00,-0.01,0.01,11.74,9.93,17.41,
52078.1,-0.16,-0.31,0.87,-0.00,-0.01,0.02,14.43,9.84,18.62,
52078.2,-0.16,-0.30,0.87,-0.00,-0.02,0.01,13.49,10.05,16.86,
52078.3,-0.16,-0.30,0.87,-0.00,0.03,-0.00,14.48,10.95,17.08,
52078.4,-0.15,-0.31,0.87,-0.01,-0.00,0.01,13.97,9.90,17.05,
52078.5,-0.15,-0.29,0.87,-0.00,0.01,0.00,13.45,10.27,17.75,
52078.6,-0.15,-0.30,0.87,-0.01,0.01,0.02,14.48,9.92,17.01,
52078.7,-0.16,-0.30,0.87,0.00,-0.01,0.02,13.62,9.07,18.25,
52078.8,-0.14,-0.30,0.87,-0.00,-0.01,0.01,13.80,9.58,16.74,
52078.9,-0.16,-0.30,0.87,-0.01,-0.01,0.02,12.38,9.46,17.83,
52079.0,-0.17,-0.30,0.86,0.00,0.03,0.00,13.80,10.61,18.08,
52079.1,-0.14,-0.30,0.88,-0.01,0.01,0.01,13.18,9.96,17.12,
52079.2,-0.15,-0.30,0.87,-0.00,0.01,0.01,13.11,9.24,18.08,
52079.3,-0.14,-0.30,0.87,-0.01,-0.03,0.02,13.28,9.75,17.58,
52079.4,-0.15,-0.30,0.86,-0.00,0.02,0.01,13.66,9.64,17.47,
52079.5,-0.15,-0.30,0.86,-0.00,0.01,0.01,13.09,9.95,17.66,
52079.6,-0.15,-0.30,0.87,0.00,0.01,0.02,13.80,9.93,17.41,
52079.7,-0.16,-0.30,0.86,-0.00,-0.01,0.01,12.43,9.24,17.75,
52079.8,-0.15,-0.31,0.86,0.01,0.03,0.01,13.97,9.07,18.59,
52079.9,-0.16,-0.30,0.86,0.00,-0.00,0.02,13.51,10.09,17.03,
52080.0,-0.16,-0.30,0.87,0.00,0.03,0.01,12.33,9.35,17.09,
52080.1,-0.15,-0.30,0.87,-0.01,-0.00,0.01,13.80,9.58,18.42,
52080.2,-0.15,-0.30,0.87,0.00,-0.00,0.01,14.14,10.95,17.75,
52080.3,-0.16,-0.30,0.87,-0.00,0.01,0.02,13.62,9.75,18.25,
52080.4,-0.15,-0.30,0.86,-0.01,0.00,0.01,13.11,10.27,16.07,
52080.5,-0.16,-0.30,0.87,0.00,0.01,0.01,13.69,9.78,18.06,
52080.6,-0.16,-0.30,0.87,-0.00,0.01,0.01,13.62,9.41,17.58,
52080.7,-0.15,-0.31,0.87,-0.01,0.02,0.01,12.60,10.44,17.24,
52080.8,-0.17,-0.30,0.87,0.01,0.03,0.00,13.20,9.20,17.69,
52080.9,-0.15,-0.30,0.88,-0.00,0.03,0.00,14.65,9.07,17.58,
52081.0,-0.16,-0.30,0.87,-0.01,-0.00,0.02,14.45,9.69,17.99,
52081.1,-0.15,-0.30,0.86,-0.01,-0.02,0.02,12.43,10.61,19.09,
52081.2,-0.16,-0.30,0.87,-0.01,0.00,0.03,14.30,10.44,17.56,
52081.3,-0.16,-0.30,0.87,-0.01,0.00,0.02,14.08,11.05,17.35,
52081.4,-0.16,-0.31,0.86,-0.00,0.00,0.02,12.26,9.75,16.91,
52081.5,-0.16,-0.30,0.87,-0.01,-0.00,0.01,13.46,9.68,17.32,
52081.6,-0.16,-0.31,0.87,-0.00,0.01,0.00,14.24,11.16,17.01,
52081.7,-0.16,-0.30,0.87,-0.00,0.01,0.01,13.27,11.03,19.49,
52081.8,-0.15,-0.30,0.87,0.00,0.02,0.00,13.36,9.25,17.22,
52081.9,-0.16,-0.31,0.87,-0.01,-0.01,0.01,14.14,9.93,17.75,
52082.0,-0.14,-0.31,0.87,-0.01,0.01,0.01,13.73,9.75,17.56,
52082.1,-0.20,-0.32,0.87,-0.07,-0.08,0.04,13.17,10.14,17.60,
52082.2,-0.08,-0.33,1.02,-0.27,-0.24,0.29,12.80,10.21,18.14,
52082.3,-0.01,-0.40,1.19,0.36,-0.38,0.63,11.08,10.48,18.96,
52082.4,-0.14,-0.28,1.08,1.19,-0.53,0.40,11.23,9.07,17.92,
52082.5,0.06,-0.13,0.98,1.39,-0.98,0.54,9.86,4.96,17.58,
52082.6,-0.02,-0.01,0.83,1.28,-0.46,0.39,6.52,1.62,14.98,
52082.7,0.02,0.19,0.71,0.89,-0.61,0.55,4.90,-2.74,15.74,
52082.8,0.17,0.26,0.62,0.16,-0.80,0.68,1.93,-4.30,15.99,
52082.9,0.36,0.16,0.63,-0.30,-0.40,0.63,-0.76,-4.59,15.21,
52083.0,0.35,0.05,0.64,-0.74,-1.80,0.34,-0.58,-3.76,15.40,
52083.1,0.42,-0.00,0.90,-0.55,0.52,0.05,-3.72,-1.14,16.85,
52083.2,0.24,-0.05,0.77,-0.64,0.44,0.21,-0.40,1.20,18.92,
52083.3,0.29,-0.15,0.87,-0.83,-0.59,0.60,-0.00,3.96,20.14,
52083.4,0.36,-0.25,0.94,0.18,1.24,0.21,-0.04,4.29,22.56,
52083.5,0.06,-0.11,0.82,1.29,0.36,0.26,3.70,3.94,25.29,
52083.6,0.26,0.01,0.56,1.43,0.45,-0.55,4.65,-2.24,22.83,
52083.7,-0.18,0.43,0.54,1.81,3.78,-0.19,7.83,-6.18,22.38,
52083.8,-0.14,0.57,0.78,1.33,-1.18,-0.72,18.63,-15.97,27.60,
52083.9,-0.22,0.53,0.76,0.13,-0.10,-0.00,16.71,-18.31,26.28,
52084.0,-0.19,0.46,0.77,-0.52,-0.09,0.16,16.36,-18.30,25.96,
52084.1,-0.16,0.41,0.82,-0.89,-0.26,0.18,16.91,-15.77,25.56,
52084.2,-0.14,0.34,0.87,-0.99,-0.49,0.13,15.51,-13.34,25.46,
52084.3,-0.15,0.29,0.88,-0.88,-1.14,0.22,12.77,-10.60,24.45,
52084.4,0.06,0.16,0.92,-0.87,-1.96,0.39,7.64,-9.92,21.43,
52084.5,0.22,0.04,0.72,-0.59,-2.04,0.47,4.04,-4.28,20.26,
52084.6,0.29,-0.23,0.86,-0.63,1.20,0.56,-0.88,0.04,20.65,
52084.7,0.13,-0.17,0.91,0.90,-0.01,-0.26,2.12,0.54,21.03,
52084.8,0.15,-0.01,0.80,0.74,-0.33,-0.02,2.85,-1.37,19.09,
52084.9,0.30,0.10,0.84,0.44,-0.14,-0.19,1.14,-3.42,15.40,
52085.0,0.27,0.21,0.76,0.38,0.22,-0.45,-1.09,-6.67,15.23,
52085.1,0.30,0.29,0.75,-0.02,-0.15,-0.61,-0.92,-7.87,13.73,
52085.2,0.21,0.32,0.81,-0.36,0.24,-0.43,0.70,-7.09,13.28,
52085.3,0.20,0.21,0.83,-0.40,0.15,-0.39,0.11,-6.16,13.73,
52085.4,0.18,0.13,0.85,-0.46,0.57,-0.29,1.31,-3.59,14.90,
52085.5,0.10,0.08,0.88,-0.61,0.73,-0.30,2.39,-4.41,14.66,
52085.6,0.06,0.01,0.92,-0.72,0.52,-0.31,4.21,-3.76,14.40,
52085.7,0.03,-0.06,0.94,-0.78,0.40,-0.19,6.95,-1.78,14.19,
52085.8,0.00,-0.14,1.05,-0.85,0.43,-0.34,9.86,0.52,13.22,
52085.9,-0.05,-0.18,1.00,-0.64,-0.03,-0.39,9.35,3.77,16.41,
52086.0,-0.15,-0.25,0.83,-0.66,0.55,-0.19,10.59,6.72,15.43,
52086.1,-0.04,-0.28,1.25,-0.03,-0.01,-0.25,11.74,9.58,15.74,
52086.2,-0.15,-0.30,0.77,-0.40,0.29,-0.14,12.16,10.44,16.62,
52086.3,-0.10,-0.33,0.84,0.13,-0.09,0.18,12.02,11.40,17.11,
52086.4,-0.11,-0.32,0.89,0.15,0.13,0.10,12.12,9.96,16.72,
52086.5,-0.14,-0.29,0.87,0.10,0.26,-0.00,12.71,9.95,16.38,
52086.6,-0.16,-0.27,0.87,0.05,0.04,0.03,13.62,8.39,16.24,
52086.7,-0.16,-0.28,0.87,0.02,0.05,0.03,12.69,8.90,16.35,
52086.8,-0.16,-0.27,0.87,0.01,0.03,0.04,13.16,8.99,16.36,
52086.9,-0.17,-0.27,0.87,0.00,0.04,-0.00,13.85,10.13,15.20,
52087.0,-0.16,-0.27,0.88,-0.00,-0.00,0.01,13.91,8.02,17.34,
52087.1,-0.15,-0.28,0.88,-0.00,-0.01,0.01,14.82,8.56,16.41,
52087.2,-0.16,-0.27,0.88,-0.01,-0.00,0.01,13.80,7.87,16.74,
52087.3,-0.15,-0.28,0.88,-0.01,0.01,0.02,12.98,9.55,16.93,
52087.4,-0.15,-0.27,0.88,-0.01,-0.01,0.00,12.91,8.88,15.88,
52087.5,-0.15,-0.28,0.88,-0.01,-0.01,0.01,12.60,8.83,17.84,
52087.6,-0.16,-0.27,0.87,-0.00,-0.00,0.01,14.07,9.17,16.27,
52087.7,-0.14,-0.28,0.88,-0.01,-0.00,0.01,12.94,8.04,15.57,
52087.8,-0.15,-0.28,0.87,-0.01,0.00,0.01,13.43,8.97,15.98,
52087.9,-0.15,-0.28,0.88,-0.00,0.00,0.01,12.43,8.90,15.40,
52088.0,-0.14,-0.27,0.88,0.00,0.04,0.00,13.62,8.73,18.25,
52088.1,-0.14,-0.28,0.88,-0.00,-0.01,0.02,13.32,8.15,16.98,
52088.2,-0.15,-0.27,0.88,-0.01,0.00,0.02,12.77,9.58,16.41,
52088.3,-0.16,-0.28,0.87,-0.00,0.02,0.01,13.15,9.79,16.13,
52088.4,-0.15,-0.27,0.88,0.00,0.01,0.01,12.94,9.75,16.91,
52088.5,-0.15,-0.28,0.88,-0.00,0.00,0.01,14.31,8.39,14.90,
52088.6,-0.15,-0.28,0.87,-0.00,0.02,0.00,13.96,9.07,17.24,
52088.7,-0.15,-0.28,0.87,-0.01,0.00,0.02,13.11,10.27,16.41,
52088.8,-0.15,-0.27,0.87,-0.01,0.01,0.02,13.52,8.62,16.78,
52088.9,-0.15,-0.28,0.88,-0.00,0.01,0.02,13.62,10.10,17.24,
52089.0,-0.14,-0.28,0.88,-0.01,0.03,0.02,12.08,8.56,16.07,
52089.1,-0.17,-0.27,0.87,-0.01,0.04,0.02,13.11,10.27,16.07,
52089.2,-0.15,-0.28,0.88,-0.01,-0.02,0.01,14.31,10.78,16.91,
52089.3,-0.16,-0.28,0.87,-0.01,0.03,0.01,14.25,9.01,16.75,
52089.4,-0.16,-0.27,0.87,-0.01,-0.01,0.01,14.31,9.75,16.24,
52089.5,-0.16,-0.28,0.88,-0.01,0.03,0.02,14.65,9.41,17.24,
52089.6,-0.16,-0.28,0.87,-0.01,-0.02,0.02,13.97,8.04,16.91,
52089.7,-0.16,-0.28,0.87,-0.00,0.01,0.01,13.45,9.24,18.42,
52089.8,-0.17,-0.28,0.87,0.00,0.01,0.01,15.68,8.04,15.57,
52089.9,-0.16,-0.28,0.87,0.00,-0.00,0.01,14.82,9.24,16.74,
52090.0,-0.17,-0.28,0.87,0.01,0.03,0.00,13.11,9.24,16.41,
52090.1,-0.15,-0.28,0.88,0.00,-0.00,0.01,13.80,11.60,17.07,
52090.2,-0.16,-0.28,0.87,0.00,-0.00,0.01,13.73,9.92,17.01,
52090.3,-0.16,-0.27,0.88,-0.00,-0.01,0.01,13.69,9.30,15.96,
52090.4,-0.16,-0.28,0.88,-0.00,-0.01,0.01,12.96,10.61,17.22,
52090.5,-0.16,-0.28,0.88,-0.01,-0.01,0.02,13.62,8.39,16.57,
52090.6,-0.16,-0.28,0.88,-0.00,0.01,0.01,13.96,9.08,16.92,
52090.7,-0.16,-0.28,0.87,-0.00,-0.00,0.00,13.39,9.20,16.52,
52090.8,-0.16,-0.28,0.88,0.00,-0.02,0.02,13.80,8.90,16.74,
52090.9,-0.16,-0.28,0.87,-0.00,0.02,0.00,14.98,10.29,17.72,
52091.0,-0.15,-0.27,0.87,-0.01,-0.02,0.03,13.25,9.33,17.72,
52091.1,-0.15,-0.28,0.88,0.00,0.00,0.00,14.31,8.31,15.49,
52091.2,-0.15,-0.28,0.88,0.00,0.02,0.01,13.54,9.05,16.33,
52091.3,-0.17,-0.27,0.87,0.00,0.02,0.01,13.97,10.10,16.91,
52091.4,-0.15,-0.28,0.87,0.00,-0.00,0.02,12.94,9.39,16.24,
52091.5,-0.16,-0.28,0.87,0.01,0.02,0.01,13.43,8.44,16.24,
52091.6,-0.15,-0.27,0.87,0.01,0.03,0.00,12.26,9.07,17.24,
52091.7,-0.17,-0.27,0.88,-0.00,0.01,0.03,14.48,8.56,17.08,
52091.8,-0.16,-0.27,0.88,-0.00,0.03,0.01,12.77,8.22,16.41,
52091.9,-0.16,-0.28,0.88,0.00,0.01,0.01,13.06,9.17,16.02,
52092.0,-0.16,-0.27,0.87,-0.00,0.00,0.02,14.18,9.13,15.80,
52092.1,-0.16,-0.27,0.87,-0.01,0.01,0.01,13.31,8.70,16.15,
52092.2,-0.16,-0.28,0.87,-0.01,-0.01,0.02,13.97,8.39,17.58,
52092.3,-0.16,-0.28,0.88,-0.01,0.02,0.02,13.46,9.90,17.04,
52092.4,-0.16,-0.27,0.87,-0.00,0.01,0.01,14.65,9.07,17.24,
52092.5,-0.15,-0.27,0.88,0.00,0.01,0.01,11.91,8.73,16.91,
52092.6,-0.17,-0.27,0.87,-0.01,0.01,0.02,13.31,8.41,15.80,
52092.7,-0.16,-0.27,0.88,-0.02,0.00,0.02,14.48,8.90,16.74,
52092.8,-0.17,-0.28,0.87,-0.00,0.01,0.01,13.06,8.11,17.77,
52092.9,-0.16,-0.28,0.87,-0.01,-0.00,0.01,13.80,7.60,15.81,
52093.0,-0.17,-0.28,0.87,-0.01,-0.01,0.02,11.91,9.41,17.58,
52093.1,-0.15,-0.28,0.87,-0.01,0.01,0.01,13.71,8.83,17.66,
52093.2,-0.16,-0.28,0.88,-0.00,0.02,0.00,13.42,7.84,16.90,
52093.3,-0.16,-0.28,0.88,-0.00,-0.00,0.01,13.82,8.83,17.02,
52093.4,-0.16,-0.28,0.88,-0.00,0.01,0.00,12.12,7.91,17.07,
52093.5,-0.15,-0.28,0.89,-0.00,-0.01,0.01,13.45,8.90,15.74,
52093.6,-0.16,-0.28,0.87,0.00,0.00,0.02,12.26,8.99,16.95,
52093.7,-0.16,-0.27,0.87,-0.00,-0.00,0.01,14.38,9.11,16.69,
52093.8,-0.16,-0.28,0.87,-0.00,0.00,0.01,13.97,8.73,17.24,
52093.9,-0.16,-0.28,0.88,-0.00,0.00,0.02,13.27,9.04,16.24,
52094.0,-0.15,-0.28,0.88,0.00,0.01,0.01,14.31,9.07,14.90,
52094.1,-0.16,-0.28,0.89,-0.01,-0.00,0.01,12.70,8.21,16.74,
52094.2,-0.16,-0.28,0.87,-0.01,-0.00,0.01,13.41,9.24,15.50,
52094.3,-0.18,-0.29,0.87,-0.08,-0.08,0.05,13.28,9.07,17.24,
52094.4,-0.14,-0.28,0.95,-0.21,-0.00,0.18,14.14,9.58,16.41,
52094.5,-0.15,-0.32,0.96,-0.12,0.01,0.17,12.26,8.73,16.91,
52094.6,0.01,-0.27,1.14,0.63,-0.49,0.20,13.62,9.41,18.92,
52094.7,-0.05,-0.27,1.12,1.04,-0.68,0.04,12.77,7.53,16.74,
52094.8,-0.06,-0.15,0.99,1.35,-0.69,0.13,9.69,3.42,16.41,
52094.9,0.00,0.01,0.90,1.23,-1.18,0.37,6.29,1.39,13.89,
52095.0,0.05,0.19,0.71,0.79,-0.60,0.54,3.19,-2.74,13.06,
52095.1,0.09,0.18,0.73,0.35,-0.89,0.65,-0.40,-3.59,12.89,
52095.2,0.23,0.23,0.65,0.01,-0.14,0.85,-3.00,-4.62,14.09,
52095.3,0.27,0.17,0.61,-0.50,-0.62,0.76,-2.12,-3.93,13.22,
52095.4,0.44,-0.03,0.80,-0.70,0.10,0.41,-4.98,-0.29,15.12,
52095.5,0.32,-0.07,0.77,-0.43,0.79,0.04,-1.94,1.03,17.41,
52095.6,0.37,-0.09,0.84,-0.44,-0.12,0.11,-1.94,2.06,19.42,
52095.7,0.27,-0.13,0.71,-0.34,0.53,0.11,-1.12,2.94,20.39,
52095.8,0.50,-0.28,0.99,0.20,-0.49,-0.12,-2.46,4.96,22.27,
52095.9,0.30,-0.14,0.68,0.56,1.33,-0.18,-1.48,3.36,22.56,
52096.0,0.24,0.10,0.96,0.70,-0.62,-0.29,2.46,1.39,22.92,
52096.1,0.27,0.06,0.87,0.94,1.34,-0.41,1.64,-2.23,20.60,
52096.2,0.19,0.07,0.88,1.44,2.85,-0.49,6.36,-6.19,20.76,
52096.3,0.06,0.35,0.79,1.43,1.70,-0.61,12.08,-10.60,22.77,
52096.4,-0.16,0.49,0.76,1.11,-0.92,-0.55,18.07,-16.59,27.30,
52096.5,-0.19,0.53,0.73,0.14,-0.14,-0.06,16.06,-19.11,26.08,
52096.6,-0.20,0.50,0.75,-0.47,0.11,0.19,16.48,-18.77,25.19,
52096.7,-0.20,0.48,0.79,-0.60,0.02,0.23,15.76,-16.30,25.50,
52096.8,-0.20,0.40,0.88,-0.64,-0.39,0.20,15.57,-15.86,24.42,
52096.9,-0.05,0.36,0.86,-0.77,-1.62,0.29,13.28,-14.54,23.28,
52097.0,0.12,0.29,0.85,-0.95,-1.51,0.37,8.86,-11.43,21.35,
52097.1,0.22,0.17,1.03,-0.90,-1.31,0.48,3.24,-7.97,20.27,
52097.2,0.31,-0.05,0.80,-0.69,0.57,0.96,1.31,-5.99,19.92,
52097.3,0.18,-0.14,0.89,-0.42,0.60,0.20,2.11,-2.18,21.24,
52097.4,0.12,-0.16,0.89,0.41,0.37,-0.07,3.36,-1.54,20.93,
52097.5,0.02,-0.00,0.75,0.64,0.24,0.01,5.71,-1.03,19.71,
52097.6,0.28,0.12,0.84,0.51,-0.17,-0.16,4.90,-3.76,17.75,
52097.7,0.25,0.22,0.73,0.46,0.18,-0.26,4.90,-4.79,15.07,
52097.8,0.09,0.23,0.73,0.19,0.03,-0.65,3.71,-7.01,14.89,
52097.9,0.12,0.29,0.72,-0.06,-0.01,-0.40,3.98,-5.60,13.73,
52098.0,0.08,0.28,0.78,-0.37,0.29,-0.40,3.82,-6.55,13.68,
52098.1,0.07,0.26,0.87,-0.50,0.24,-0.25,3.53,-5.82,12.38,
52098.2,0.01,0.19,0.91,-0.48,0.46,-0.31,5.41,-4.28,12.55,
52098.3,0.03,0.06,0.90,-0.72,0.08,-0.21,7.50,-2.91,14.50,
52098.4,-0.01,-0.04,0.88,-0.87,0.89,-0.11,7.44,-2.47,13.94,
52098.5,-0.00,-0.15,1.04,-1.03,0.13,-0.45,11.40,-1.71,15.40,
52098.6,-0.02,-0.24,1.04,-0.76,0.43,-0.16,10.25,1.89,15.90,
52098.7,-0.16,-0.34,1.02,-0.36,0.40,-0.11,11.57,6.67,16.57,
52098.8,-0.17,-0.32,0.90,-0.38,0.04,-0.18,12.46,7.53,16.00,
52098.9,-0.06,-0.30,1.02,0.19,0.30,-0.22,13.60,8.29,15.57,
52099.0,-0.15,-0.32,0.92,-0.33,0.16,-0.27,14.14,8.22,17.08,
52099.1,-0.15,-0.27,0.83,-0.03,-0.06,0.07,13.30,9.80,17.90,
52099.2,-0.13,-0.35,0.87,0.03,-0.04,0.10,13.33,9.10,16.26,
52099.3,-0.15,-0.32,0.87,0.07,0.08,0.00,16.02,10.10,17.58,
52099.4,-0.15,-0.31,0.87,0.03,0.01,-0.02,13.58,10.07,17.44,
52099.5,-0.18,-0.32,0.86,0.03,0.06,0.00,14.31,9.07,18.59,
52099.6,-0.17,-0.31,0.87,0.02,0.02,0.01,14.68,8.22,18.23,
52099.7,-0.15,-0.31,0.87,0.02,0.03,0.00,14.44,8.79,16.00,
52099.8,-0.16,-0.30,0.87,-0.00,-0.02,0.02,13.28,9.41,17.58,
52099.9,-0.15,-0.30,0.86,0.00,0.04,-0.00,14.14,8.75,18.28,
52100.0,-0.16,-0.31,0.87,0.01,-0.00,0.02,14.36,8.51,16.46,
52100.1,-0.18,-0.30,0.87,0.02,0.03,0.01,14.00,8.35,17.28,
52100.2,-0.16,-0.30,0.87,0.01,-0.00,0.02,14.48,8.22,17.08,
52100.3,-0.16,-0.30,0.87,0.01,0.01,0.01,16.53,8.56,17.08,
52100.4,-0.16,-0.30,0.87,0.00,0.01,0.01,15.16,8.00,17.23,
52100.5,-0.16,-0.30,0.87,0.00,0.04,0.02,14.99,8.39,17.24,
52100.6,-0.17,-0.29,0.87,0.01,0.02,0.01,14.48,8.90,16.07,
52100.7,-0.17,-0.30,0.86,-0.00,-0.03,0.03,14.65,7.02,16.91,
52100.8,-0.18,-0.30,0.87,-0.00,0.02,0.01,15.68,8.73,17.24,
52100.9,-0.15,-0.30,0.87,-0.00,-0.01,0.01,15.03,9.61,18.81,
52101.0,-0.17,-0.29,0.86,-0.00,0.02,0.01,14.31,8.39,18.59,
52101.1,-0.16,-0.30,0.87,-0.00,-0.01,0.01,16.19,8.56,17.41,
52101.2,-0.16,-0.30,0.87,-0.00,-0.01,0.02,14.48,9.24,18.75,
52101.3,-0.16,-0.30,0.87,-0.01,-0.00,-0.00,14.82,8.90,18.42,
52101.4,-0.15,-0.30,0.87,0.01,0.01,0.01,14.53,8.69,19.13,
52101.5,-0.16,-0.29,0.86,-0.01,-0.01,0.02,14.14,9.44,17.61,
52101.6,-0.16,-0.30,0.87,-0.00,0.00,0.02,14.65,8.73,17.92,
52101.7,-0.17,-0.30,0.86,-0.00,0.01,0.02,14.59,8.52,17.39,
52101.8,-0.16,-0.31,0.87,0.00,0.00,0.01,16.02,9.07,17.58,
52101.9,-0.17,-0.30,0.86,-0.01,-0.00,0.01,14.32,8.05,16.58,
52102.0,-0.15,-0.30,0.88,-0.01,-0.00,0.03,13.29,8.66,18.05,
52102.1,-0.16,-0.30,0.87,0.01,0.03,-0.00,13.11,8.22,16.74,
52102.2,-0.16,-0.31,0.87,-0.00,-0.01,-0.00,14.94,7.31,17.01,
52102.3,-0.16,-0.30,0.87,0.01,0.05,-0.00,14.65,8.39,16.91,
52102.4,-0.16,-0.30,0.86,-0.01,-0.03,0.01,13.49,9.16,15.82,
52102.5,-0.16,-0.30,0.87,-0.01,0.03,0.01,14.65,8.33,18.34,
52102.6,-0.16,-0.30,0.87,-0.01,-0.02,0.02,14.48,7.87,17.75,
52102.7,-0.16,-0.30,0.86,0.00,0.02,0.00,14.76,8.95,17.51,
52102.8,-0.16,-0.30,0.87,-0.01,-0.01,0.02,14.31,8.04,17.58,
52102.9,-0.15,-0.30,0.86,0.01,0.02,-0.00,13.06,8.88,16.02,
52103.0,-0.15,-0.29,0.86,-0.00,-0.03,0.02,14.67,9.70,16.35,
52103.1,-0.17,-0.30,0.86,0.00,0.01,0.01,14.31,8.39,17.24,
52103.2,-0.16,-0.30,0.87,0.01,0.01,0.00,14.70,8.41,17.14,
52103.3,-0.16,-0.30,0.87,0.01,0.00,0.01,14.22,8.37,16.03,
52103.4,-0.16,-0.30,0.87,0.00,0.00,0.01,13.45,8.22,16.74,
52103.5,-0.15,-0.30,0.88,0.00,0.02,0.01,15.09,7.90,17.37,
52103.6,-0.16,-0.30,0.87,-0.00,0.01,0.02,13.45,8.22,16.07,
52103.7,-0.16,-0.30,0.86,-0.00,0.01,0.01,13.74,7.48,17.24,
52103.8,-0.16,-0.30,0.88,-0.00,0.03,0.00,14.97,8.36,18.32,
52103.9,-0.15,-0.30,0.87,-0.01,0.00,0.01,13.11,9.24,16.74,
52104.0,-0.16,-0.30,0.86,0.00,0.01,0.01,14.31,9.07,16.57,
52104.1,-0.17,-0.29,0.86,-0.00,-0.01,0.01,15.51,9.24,16.41,
52104.2,-0.16,-0.30,0.87,-0.00,0.02,0.01,15.51,7.53,17.75,
52104.3,-0.16,-0.30,0.87,-0.00,-0.00,0.01,14.31,8.04,17.13,
52104.4,-0.15,-0.30,0.87,-0.00,0.01,0.01,13.80,9.58,18.08,
52104.5,-0.17,-0.29,0.87,-0.00,0.01,0.01,13.80,7.53,16.74,
52104.6,-0.16,-0.30,0.87,-0.00,-0.00,0.01,14.42,9.07,17.24,
52104.7,-0.17,-0.30,0.86,-0.00,0.01,0.02,13.80,7.19,16.74,
52104.8,-0.16,-0.29,0.86,-0.00,-0.00,0.01,13.69,8.65,16.79,
52104.9,-0.16,-0.30,0.86,-0.00,0.00,0.02,14.31,7.70,17.58,
52105.0,-0.18,-0.29,0.86,0.00,0.00,0.01,13.86,7.95,17.12,
52105.1,-0.16,-0.30,0.88,-0.00,0.02,0.01,14.49,8.39,17.86,
52105.2,-0.17,-0.29,0.87,-0.01,-0.01,0.02,14.82,10.27,18.42,
52105.3,-0.16,-0.29,0.87,-0.00,0.01,0.01,14.36,8.29,16.65,
52105.4,-0.16,-0.29,0.87,-0.00,-0.00,0.02,13.39,8.73,16.29,
52105.5,-0.17,-0.30,0.87,-0.01,-0.01,0.01,13.55,7.85,16.84,
52105.6,-0.16,-0.30,0.88,-0.00,0.01,0.01,14.14,9.17,16.78,
52105.7,-0.17,-0.30,0.87,-0.00,0.01,0.01,16.36,9.41,18.25,
52105.8,-0.16,-0.30,0.87,-0.00,0.03,0.01,14.14,8.67,17.08,
52105.9,-0.17,-0.30,0.86,-0.00,0.01,0.02,15.09,7.33,17.23,
52106.0,-0.17,-0.29,0.87,-0.00,0.02,0.02,14.14,7.87,17.08,
52106.1,-0.17,-0.30,0.87,-0.00,0.01,0.01,14.48,8.86,17.74,
52106.2,-0.17,-0.30,0.86,-0.00,0.01,0.01,14.65,7.70,16.91,
52106.3,-0.16,-0.30,0.87,-0.01,-0.00,0.02,15.85,8.22,16.07,
52106.4,-0.17,-0.30,0.87,-0.01,0.01,0.02,15.46,7.67,17.76,
52106.5,-0.16,-0.30,0.88,-0.01,-0.01,0.02,13.28,8.73,16.57,
52106.6,-0.16,-0.30,0.87,0.00,0.01,0.02,14.99,8.73,15.90,
52106.7,-0.16,-0.30,0.87,-0.00,-0.00,0.02,15.35,8.79,17.30,
52106.8,-0.17,-0.30,0.86,-0.00,-0.00,0.01,14.82,8.90,16.07,
52106.9,-0.18,-0.29,0.87,0.01,0.01,-0.00,14.98,7.02,17.23,
52107.0,-0.17,-0.30,0.85,-0.05,-0.01,0.10,15.16,7.53,17.41,
52107.1,-0.17,-0.32,0.88,-0.17,0.20,0.15,16.36,7.36,18.59,
52107.2,-0.19,-0.38,0.97,0.06,0.26,0.21,16.68,8.43,19.67,
52107.3,-0.11,-0.33,1.09,0.18,-0.77,0.33,17.29,8.71,18.27,
52107.4,-0.10,-0.29,1.07,0.84,-0.66,0.16,14.31,6.40,17.71,
52107.5,-0.02,-0.16,1.03,1.09,-0.81,0.20,10.03,5.13,15.40,
52107.6,-0.06,0.01,0.95,0.96,-0.39,0.35,9.85,1.87,16.21,
52107.7,-0.06,0.10,0.77,0.68,-0.55,0.52,7.78,-0.23,15.30,
52107.8,0.04,0.06,0.79,0.23,-1.53,0.55,5.58,-1.37,16.07,
52107.9,0.18,0.13,0.73,0.14,-0.37,0.71,0.79,-0.68,14.06,
52108.0,0.19,0.12,0.69,-0.20,0.10,0.71,0.00,-1.82,14.84,
52108.1,0.29,0.03,0.75,-0.44,-0.47,0.54,1.65,0.17,17.24,
52108.2,0.38,-0.02,0.74,-0.53,-0.10,0.46,0.79,1.03,16.07,
52108.3,0.28,-0.13,0.76,-0.67,0.23,0.22,0.58,2.11,19.22,
52108.4,0.25,-0.29,1.07,-0.37,-0.45,0.13,3.87,4.45,22.44,
52108.5,0.33,-0.10,0.84,0.04,0.74,0.10,1.82,3.08,23.78,
52108.6,0.12,-0.15,0.83,0.11,1.34,-0.31,5.58,2.74,23.11,
52108.7,0.01,-0.18,0.84,0.52,-0.53,0.05,6.10,3.59,24.62,
52108.8,0.28,-0.07,0.85,1.03,-0.24,-0.33,4.75,0.83,23.00,
52108.9,-0.01,0.11,0.80,1.60,0.72,-0.29,5.58,-3.42,23.11,
52109.0,0.01,0.27,0.97,1.65,2.11,-0.21,9.69,-9.58,22.10,
52109.1,0.09,0.38,0.71,1.24,1.21,-0.51,11.92,-14.29,23.45,
52109.2,-0.14,0.74,0.48,0.81,-1.31,-0.59,19.78,-20.01,26.96,
52109.3,-0.26,0.57,0.68,-0.06,0.22,0.10,16.40,-22.08,25.87,
52109.4,-0.22,0.51,0.73,-0.44,-0.06,0.09,15.90,-22.11,26.16,
52109.5,-0.18,0.51,0.79,-0.57,-0.09,0.09,16.20,-19.51,25.79,
52109.6,-0.18,0.45,0.80,-0.77,-0.15,0.14,16.14,-16.90,26.29,
52109.7,-0.23,0.37,0.90,-0.89,-0.45,0.17,16.88,-16.42,27.13,
52109.8,-0.10,0.33,0.89,-0.98,-1.25,0.17,13.85,-11.88,24.17,
52109.9,0.03,0.20,0.86,-1.11,-1.32,0.28,12.08,-10.62,23.32,
52110.0,0.16,0.08,0.28,-0.92,-1.80,0.36,5.29,-6.01,20.55,
52110.1,0.18,-0.03,0.85,-0.24,0.05,0.26,2.92,-3.07,21.62,
52110.2,0.25,-0.07,0.92,-0.22,0.36,-0.10,2.33,-3.93,20.60,
52110.3,0.19,-0.09,0.92,0.41,0.58,0.10,5.24,0.00,20.09,
52110.4,0.18,-0.02,0.87,0.47,0.57,-0.09,5.54,-1.67,20.95,
52110.5,0.11,0.08,0.80,0.42,-0.33,-0.12,6.76,-4.10,17.45,
52110.6,0.16,0.16,0.77,0.34,-0.48,-0.29,6.01,-6.16,16.11,
52110.7,0.18,0.24,0.73,0.20,0.22,-0.23,4.21,-5.82,14.73,
52110.8,0.11,0.22,0.85,0.11,-0.18,-0.27,4.76,-7.48,15.01,
52110.9,0.15,0.31,0.79,-0.12,0.11,-0.30,3.95,-8.64,13.81,
52111.0,0.13,0.32,0.81,-0.29,0.37,-0.24,5.24,-7.18,14.06,
52111.1,0.12,0.20,0.92,-0.52,0.04,-0.31,5.41,-8.38,12.89,
52111.2,0.11,0.15,0.89,-0.52,0.47,-0.25,6.20,-7.28,13.07,
52111.3,0.04,0.11,0.92,-0.61,0.33,-0.24,7.47,-4.96,14.23,
52111.4,-0.03,-0.08,0.97,-0.69,0.48,-0.18,7.86,-5.37,14.16,
52111.5,-0.05,-0.10,0.93,-0.64,0.47,-0.08,9.69,-3.42,12.72,
52111.6,-0.09,-0.13,0.99,-0.61,0.27,-0.18,12.60,-2.22,14.90,
52111.7,-0.11,-0.19,0.92,-0.53,0.46,-0.17,12.51,0.77,14.23,
52111.8,-0.12,-0.26,0.95,-0.59,0.46,-0.24,14.31,2.91,15.90,
52111.9,-0.06,-0.31,1.11,-0.13,-0.47,-0.32,13.53,6.48,16.46,
52112.0,-0.15,-0.28,0.77,-0.22,0.24,-0.31,11.98,6.36,16.25,
52112.1,-0.13,-0.33,0.90,0.08,0.13,-0.16,12.77,8.56,17.41,
52112.2,-0.15,-0.33,0.86,-0.02,-0.18,0.05,13.19,8.05,15.63,
52112.3,-0.09,-0.34,0.87,0.00,-0.04,0.10,12.43,7.87,16.07,
52112.4,-0.11,-0.30,0.88,0.03,0.03,0.01,13.53,8.14,16.33,
52112.5,-0.13,-0.30,0.87,0.03,0.02,0.00,11.74,7.87,17.41,
52112.6,-0.13,-0.30,0.87,0.03,0.06,0.01,13.81,7.88,16.06,
52112.7,-0.13,-0.30,0.87,0.03,-0.02,0.04,13.22,8.10,16.52,
52112.8,-0.13,-0.31,0.88,0.01,0.04,0.01,14.14,7.87,16.41,
52112.9,-0.14,-0.30,0.88,0.03,0.03,0.01,13.44,7.87,16.57,
52113.0,-0.14,-0.29,0.87,-0.00,0.01,0.00,14.60,7.62,16.44,
52113.1,-0.14,-0.30,0.87,-0.05,-0.04,0.00,13.99,7.18,15.10,
52113.2,-0.11,-0.31,0.87,-0.02,-0.09,-0.02,13.82,7.55,16.73,
52113.3,-0.11,-0.30,0.88,-0.02,-0.03,-0.04,12.60,8.04,14.90,
52113.4,-0.13,-0.31,0.87,0.01,0.02,-0.02,13.28,7.36,14.90,
52113.5,-0.11,-0.30,0.87,0.02,-0.05,0.00,12.34,7.36,16.65,
52113.6,-0.11,-0.31,0.87,0.02,0.04,0.01,12.43,7.19,15.74,
52113.7,-0.12,-0.30,0.87,0.02,0.05,0.03,12.60,6.67,15.90,
52113.8,-0.12,-0.28,0.87,0.01,0.02,0.01,13.03,8.13,15.89,
52113.9,-0.12,-0.30,0.87,0.00,0.03,0.01,12.94,6.33,15.57,
52114.0,-0.13,-0.29,0.87,0.01,0.01,0.02,13.70,8.78,16.40,
52114.1,-0.12,-0.30,0.87,-0.00,0.01,0.01,12.43,6.85,15.40,
52114.2,-0.14,-0.30,0.87,-0.01,0.00,0.02,13.28,7.02,16.91,
52114.3,-0.13,-0.30,0.87,0.00,0.01,0.01,13.57,7.05,15.27,
52114.4,-0.13,-0.29,0.87,0.01,0.02,0.01,13.81,7.55,15.31,
52114.5,-0.13,-0.29,0.87,-0.01,0.01,0.01,12.77,8.16,15.33,
52114.6,-0.12,-0.29,0.87,0.00,0.02,0.02,13.28,7.70,16.24,
52114.7,-0.12,-0.29,0.87,-0.00,-0.00,0.01,12.45,7.85,15.43,
52114.8,-0.13,-0.29,0.87,0.00,0.03,0.01,14.08,8.04,13.56,
52114.9,-0.13,-0.29,0.87,0.00,0.00,0.01,12.08,7.87,16.07,
52115.0,-0.13,-0.29,0.87,-0.00,0.02,0.01,13.48,7.34,16.38,
52115.1,-0.13,-0.29,0.88,-0.00,0.00,0.02,14.41,6.87,15.81,
52115.2,-0.13,-0.30,0.87,0.00,0.01,0.00,13.04,7.51,16.42,
52115.3,-0.14,-0.29,0.88,0.00,0.01,0.00,13.66,6.50,15.60,
52115.4,-0.13,-0.30,0.88,-0.01,0.01,0.01,12.26,8.04,15.90,
52115.5,-0.13,-0.29,0.87,-0.00,0.00,0.03,14.99,8.73,15.57,
52115.6,-0.13,-0.28,0.87,-0.00,0.01,0.02,12.16,7.80,16.20,
52115.7,-0.13,-0.30,0.87,-0.00,0.02,0.01,13.11,7.19,17.08,
52115.8,-0.14,-0.30,0.87,-0.01,-0.01,0.02,14.30,9.01,16.57,
52115.9,-0.12,-0.29,0.88,-0.01,0.04,0.02,13.42,6.96,15.61,
52116.0,-0.14,-0.29,0.87,-0.01,0.01,0.02,13.62,8.04,16.24,
52116.1,-0.13,-0.29,0.87,-0.01,-0.00,0.02,12.83,7.38,15.98,
52116.2,-0.12,-0.29,0.87,-0.01,0.01,0.03,13.11,7.19,15.07,
52116.3,-0.13,-0.29,0.87,-0.02,-0.01,0.02,13.97,6.33,14.56,
52116.4,-0.13,-0.30,0.87,-0.01,0.01,0.02,13.75,7.14,15.45,
52116.5,-0.13,-0.30,0.87,-0.00,0.02,0.02,12.77,8.90,16.41,
52116.6,-0.12,-0.30,0.87,0.00,0.02,0.01,14.41,7.71,16.46,
52116.7,-0.13,-0.30,0.87,-0.00,0.01,0.01,14.31,7.70,15.23,
52116.8,-0.13,-0.30,0.87,0.00,0.00,0.01,12.59,7.53,16.00,
52116.9,-0.13,-0.29,0.87,0.01,0.01,0.01,13.62,6.67,15.90,
52117.0,-0.13,-0.29,0.88,-0.00,0.00,0.01,14.48,9.24,15.40,
52117.1,-0.13,-0.30,0.87,0.00,0.01,0.00,13.39,7.34,15.04,
52117.2,-0.13,-0.30,0.88,0.00,0.02,-0.00,12.94,7.70,15.90,
52117.3,-0.12,-0.29,0.87,0.00,0.01,0.01,13.94,8.98,15.69,
52117.4,-0.14,-0.29,0.87,-0.00,-0.01,0.01,13.33,7.68,16.79,
52117.5,-0.13,-0.29,0.88,0.01,0.03,0.00,12.77,7.53,16.07,
52117.6,-0.12,-0.29,0.88,-0.00,-0.01,0.02,12.98,7.05,16.15,
52117.7,-0.13,-0.29,0.88,0.00,0.02,0.01,13.86,8.30,16.65,
52117.8,-0.13,-0.29,0.87,-0.00,0.00,0.01,13.98,8.06,16.02,
52117.9,-0.14,-0.30,0.87,0.00,0.01,0.01,13.65,6.96,15.93,
52118.0,-0.13,-0.29,0.87,-0.00,-0.01,0.02,13.45,7.53,16.41,
52118.1,-0.13,-0.30,0.87,-0.01,0.01,0.01,13.45,7.53,16.41,
52118.2,-0.13,-0.29,0.88,0.00,0.02,0.01,14.14,6.85,16.41,
52118.3,-0.13,-0.29,0.88,-0.00,-0.00,0.01,13.97,8.04,15.90,
52118.4,-0.14,-0.29,0.87,-0.00,0.01,0.01,13.13,7.53,15.73,
52118.5,-0.14,-0.31,0.88,-0.06,-0.02,0.03,12.77,8.22,16.07,
52118.6,-0.14,-0.30,0.88,-0.10,0.03,0.07,13.45,7.19,15.74,
52118.7,-0.12,-0.32,0.92,-0.21,0.16,0.14,14.03,9.07,16.77,
52118.8,-0.17,-0.36,0.96,-0.13,0.08,0.38,14.70,8.44,17.64,
52118.9,-0.00,-0.38,1.11,0.29,-0.35,0.19,13.45,7.87,18.42,
52119.0,-0.13,-0.33,1.03,0.47,-0.73,0.16,13.62,6.95,16.91,
52119.1,-0.03,-0.23,1.02,0.92,-1.15,0.38,11.57,8.04,16.57,
52119.2,0.01,-0.07,0.91,1.03,-0.99,0.54,8.78,2.95,15.91,
52119.3,0.14,-0.01,0.81,0.82,-1.58,0.26,4.31,1.70,15.73,
52119.4,0.25,0.09,0.72,0.54,-0.81,0.54,-1.77,-0.51,14.90,
52119.5,0.28,0.11,0.68,0.09,0.22,0.67,-2.43,-1.85,13.41,
52119.6,0.29,0.05,0.76,-0.17,-0.11,0.37,-1.01,-0.25,15.63,
52119.7,0.15,-0.05,0.71,-0.17,0.40,0.51,-1.24,0.43,16.36,
52119.8,0.33,-0.11,0.77,-0.34,0.03,0.12,-0.50,2.32,17.73,
52119.9,0.28,-0.20,0.74,-0.35,0.40,-0.06,-0.92,2.74,19.09,
52120.0,0.29,-0.22,0.80,-0.25,0.47,0.04,0.87,4.56,21.33,
52120.1,0.27,-0.17,0.80,-0.14,0.74,0.01,3.42,3.76,21.55,
52120.2,0.15,-0.23,0.90,0.01,0.06,-0.00,5.41,4.62,24.95,
52120.3,0.30,-0.09,0.89,0.87,-0.59,-0.09,5.74,3.25,23.60,
52120.4,0.19,-0.09,0.84,1.19,0.17,-0.26,4.56,0.34,22.77,
52120.5,0.14,0.08,0.97,1.49,1.48,-0.33,4.04,-3.59,19.92,
52120.6,-0.10,0.26,1.13,1.83,2.69,-0.36,7.66,-9.02,20.45,
52120.7,-0.63,0.03,1.50,2.99,2.91,-0.40,15.51,-16.76,24.45,
52120.8,0.06,0.53,0.90,0.71,-0.56,-0.44,15.85,-21.21,26.13,
52120.9,-0.18,0.56,0.73,-0.12,-0.22,-0.02,16.22,-22.30,26.13,
52121.0,-0.19,0.54,0.75,-0.49,0.06,0.17,17.56,-21.90,26.13,
52121.1,-0.13,0.52,0.80,-0.51,-0.45,0.20,16.18,-21.08,25.47,
52121.2,-0.13,0.46,0.83,-0.87,0.03,0.28,15.64,-19.99,24.91,
52121.3,-0.13,0.36,0.85,-1.00,-0.86,0.33,14.14,-17.79,22.10,
52121.4,0.06,0.27,0.84,-0.96,-1.75,0.35,10.67,-14.11,20.72,
52121.5,0.17,0.15,0.86,-0.88,-0.68,0.33,6.27,-9.24,19.76,
52121.6,0.24,0.10,0.68,-0.82,-1.28,0.39,4.25,-5.85,19.69,
52121.7,0.30,-0.00,0.89,-0.76,0.43,0.11,1.31,-4.62,20.26,
52121.8,0.14,-0.18,0.90,-0.17,0.76,0.01,2.15,-1.49,21.24,
52121.9,0.15,-0.11,0.99,0.39,0.14,0.09,6.70,-0.44,21.10,
52122.0,0.18,-0.02,0.85,0.79,0.32,-0.15,6.95,-3.08,18.42,
52122.1,0.14,0.09,0.79,0.52,-0.33,-0.18,6.71,-4.71,17.16,
52122.2,0.14,0.17,0.71,0.30,-0.36,-0.34,6.44,-6.10,15.23,
52122.3,0.13,0.21,0.72,0.18,0.17,-0.38,4.71,-7.60,15.03,
52122.4,0.13,0.28,0.79,-0.23,0.19,-0.27,5.54,-9.31,14.51,
52122.5,0.13,0.26,0.87,-0.35,0.33,-0.29,5.92,-6.84,13.39,
52122.6,0.08,0.21,0.83,-0.48,0.56,-0.29,8.15,-8.04,14.23,
52122.7,0.04,0.07,0.94,-0.46,0.51,-0.35,8.87,-6.29,13.60,
52122.8,-0.02,0.02,0.92,-0.65,0.78,-0.43,10.20,-4.28,14.23,
52122.9,-0.05,-0.09,1.04,-0.89,0.27,-0.37,13.62,-1.56,15.56,
52123.0,-0.06,-0.13,1.02,-0.71,0.16,-0.33,14.03,-1.02,15.75,
52123.1,-0.13,-0.24,0.95,-0.46,0.20,-0.60,14.31,1.88,15.23,
52123.2,-0.19,-0.27,0.89,-0.34,0.50,-0.17,13.55,4.86,15.87,
52123.3,-0.13,-0.29,1.20,-0.11,0.07,-0.13,15.34,5.99,16.57,
52123.4,-0.21,-0.21,0.76,0.06,0.20,0.03,14.99,6.33,16.24,
52123.5,-0.16,-0.32,0.92,-0.18,-0.10,-0.15,16.35,6.34,16.14,
52123.6,-0.16,-0.28,0.87,0.10,0.26,-0.19,14.82,6.50,17.41,
52123.7,-0.23,-0.29,0.87,0.02,0.12,-0.09,16.86,7.02,16.42,
52123.8,-0.18,-0.28,0.88,-0.05,-0.04,0.00,16.53,7.53,16.41,
52123.9,-0.17,-0.30,0.87,-0.02,-0.03,-0.03,16.36,7.02,17.58,
52124.0,-0.17,-0.28,0.86,0.03,0.02,-0.03,15.99,8.83,16.55,
52124.1,-0.17,-0.29,0.87,0.03,-0.06,-0.00,14.48,6.16,16.41,
52124.2,-0.18,-0.29,0.89,0.02,-0.01,-0.00,15.24,8.24,16.91,
52124.3,-0.17,-0.29,0.87,0.02,0.04,0.04,15.60,7.36,16.50,
52124.4,-0.18,-0.28,0.87,0.03,0.01,0.02,14.90,7.49,17.37,
52124.5,-0.18,-0.28,0.87,0.03,0.02,0.00,15.54,7.70,16.98,
52124.6,-0.18,-0.27,0.87,0.02,0.03,0.01,17.05,7.02,16.91,
52124.7,-0.18,-0.27,0.86,0.01,0.01,0.01,15.42,8.64,16.16,
52124.8,-0.18,-0.27,0.87,0.00,0.01,0.01,14.83,7.36,16.30,
52124.9,-0.18,-0.27,0.87,0.01,0.01,0.01,16.49,7.49,15.72,
52125.0,-0.18,-0.27,0.86,0.00,0.00,0.00,16.40,7.59,16.62,
52125.1,-0.19,-0.27,0.87,-0.00,0.01,0.01,16.02,6.67,15.90,
52125.2,-0.19,-0.27,0.87,0.00,0.02,0.00,15.04,5.42,16.86,
52125.3,-0.18,-0.26,0.88,-0.01,-0.02,0.01,16.02,7.36,15.33,
52125.4,-0.19,-0.27,0.87,-0.01,0.01,0.01,15.85,7.19,18.08,
52125.5,-0.18,-0.27,0.88,-0.00,-0.01,0.01,15.66,6.95,16.56,
52125.6,-0.18,-0.27,0.88,-0.00,0.01,0.01,16.02,8.39,14.90,
52125.7,-0.18,-0.27,0.86,-0.01,-0.01,0.01,15.96,6.67,17.02,
52125.8,-0.18,-0.27,0.87,-0.00,0.01,0.01,15.87,7.32,16.57,
52125.9,-0.18,-0.27,0.87,-0.00,-0.00,0.01,16.19,6.50,16.41,
52126.0,-0.18,-0.27,0.87,-0.01,-0.00,0.01,16.69,7.17,16.17,
52126.1,-0.19,-0.27,0.87,0.00,0.02,0.01,16.36,7.02,16.24,
52126.2,-0.18,-0.27,0.88,-0.01,-0.01,0.01,15.85,7.00,16.56,
52126.3,-0.18,-0.27,0.87,-0.00,0.02,0.01,16.36,8.04,15.57,
52126.4,-0.18,-0.27,0.88,-0.00,0.00,0.01,14.82,6.50,15.40,
52126.5,-0.18,-0.27,0.87,0.00,0.02,0.01,16.24,6.81,17.11,
52126.6,-0.18,-0.27,0.87,-0.00,0.00,0.02,15.85,8.22,16.07,
52126.7,-0.18,-0.27,0.87,-0.00,-0.00,0.01,15.68,7.06,16.95,
52126.8,-0.18,-0.27,0.88,-0.00,0.01,0.01,15.34,7.70,15.23,
52126.9,-0.18,-0.27,0.87,0.00,0.00,0.00,16.88,6.85,15.07,
52127.0,-0.19,-0.27,0.87,-0.00,0.00,0.02,15.51,7.48,15.59,
52127.1,-0.19,-0.27,0.87,-0.00,-0.00,0.01,16.35,7.70,17.17,
52127.2,-0.18,-0.27,0.87,-0.00,0.01,0.01,16.36,6.67,15.57,
52127.3,-0.19,-0.27,0.87,-0.00,0.00,0.01,15.55,6.83,16.10,
52127.4,-0.18,-0.27,0.88,-0.00,0.01,0.01,15.68,7.70,15.90,
52127.5,-0.18,-0.27,0.87,-0.00,0.01,0.02,15.34,7.70,17.24,
52127.6,-0.18,-0.27,0.87,-0.01,0.00,0.02,15.27,7.27,15.82,
52127.7,-0.18,-0.27,0.87,0.00,0.03,0.02,15.68,6.33,16.57,
52127.8,-0.19,-0.27,0.86,0.01,0.01,0.02,16.24,7.37,15.52,
52127.9,-0.19,-0.27,0.87,-0.01,0.01,0.02,15.54,6.50,16.09,
52128.0,-0.19,-0.27,0.88,-0.00,0.02,0.01,16.71,6.33,16.91,
52128.1,-0.19,-0.27,0.87,-0.00,0.00,0.01,15.73,6.35,16.24,
52128.2,-0.19,-0.27,0.87,-0.01,0.01,0.02,16.53,7.87,16.74,
52128.3,-0.18,-0.27,0.88,-0.00,-0.00,0.02,15.91,5.58,16.68,
52128.4,-0.19,-0.28,0.87,0.01,0.02,0.00,17.48,6.19,15.13,
52128.5,-0.19,-0.27,0.87,0.00,0.01,0.01,16.19,5.13,17.41,
52128.6,-0.19,-0.27,0.88,0.00,-0.00,0.01,16.33,7.53,16.47,
52128.7,-0.18,-0.26,0.87,-0.00,-0.01,0.01,16.02,8.04,16.24,
52128.8,-0.19,-0.27,0.86,0.00,0.00,0.00,16.17,5.84,16.35,
52128.9,-0.19,-0.27,0.87,0.00,0.01,0.00,16.19,6.85,15.74,
52129.0,-0.19,-0.27,0.88,-0.00,-0.00,0.01,16.02,6.67,15.90,
52129.1,-0.19,-0.27,0.87,-0.00,0.01,0.01,16.34,7.59,16.15,
52129.2,-0.18,-0.27,0.88,-0.00,-0.01,0.01,14.82,6.85,16.07,
52129.3,-0.19,-0.27,0.87,-0.00,0.01,0.01,17.05,6.33,16.24,
52129.4,-0.19,-0.27,0.87,-0.00,0.00,0.01,15.68,6.67,16.24,
52129.5,-0.19,-0.27,0.87,-0.00,0.01,0.01,17.05,7.70,17.24,
52129.6,-0.18,-0.27,0.87,-0.00,0.01,0.00,16.21,6.43,16.91,
52129.7,-0.19,-0.27,0.87,0.00,-0.00,0.02,15.88,7.15,16.44,
52129.8,-0.19,-0.27,0.87,0.00,0.00,0.01,15.85,6.50,17.75,
52129.9,-0.18,-0.27,0.88,-0.00,0.01,0.01,15.86,7.14,16.35,
52130.0,-0.19,-0.27,0.86,-0.01,-0.00,0.01,14.99,6.33,15.57,
52130.1,-0.18,-0.27,0.87,0.00,0.02,0.01,17.22,7.87,15.74,
52130.2,-0.19,-0.27,0.87,-0.01,-0.00,0.02,16.53,6.82,15.94,
52130.3,-0.18,-0.27,0.87,-0.00,0.00,0.01,15.85,6.50,16.74,
52130.4,-0.19,-0.28,0.88,-0.03,0.03,0.01,16.28,7.65,16.89,
52130.5,-0.19,-0.26,0.86,-0.12,0.10,0.08,15.83,7.19,17.70,
52130.6,-0.21,-0.28,0.85,-0.15,0.08,0.06,16.36,9.41,17.92,
52130.7,-0.22,-0.30,0.84,-0.17,0.07,0.06,17.21,7.21,17.61,
52130.8,-0.21,-0.31,0.86,-0.13,-0.05,0.00,17.05,8.04,18.59,
52130.9,-0.24,-0.34,0.85,-0.04,-0.06,-0.05,17.73,9.75,17.24,
52131.0,-0.23,-0.32,0.94,-0.13,-0.13,0.07,16.83,10.88,16.96,
52131.1,-0.29,-0.51,1.16,0.21,-0.31,0.31,17.56,9.93,18.08,
52131.2,-0.11,-0.29,1.08,1.18,-0.30,0.47,17.13,6.88,18.21,
52131.3,-0.10,-0.19,1.05,1.47,-0.47,0.46,14.65,2.23,19.59,
52131.4,-0.22,-0.00,0.81,1.42,-0.50,0.40,13.80,-0.68,17.08,
52131.5,-0.09,0.20,0.73,0.76,-1.62,0.55,9.89,-4.01,15.64,
52131.6,0.12,0.26,0.72,0.27,-1.12,0.72,5.58,-3.42,14.40,
52131.7,0.13,0.20,0.68,0.05,-0.12,0.80,3.53,-6.16,14.06,
52131.8,0.08,0.15,0.59,-0.44,-0.19,0.58,2.70,-4.29,13.87,
52131.9,0.26,0.02,0.72,-0.77,-1.19,0.50,0.45,-1.71,14.40,
52132.0,0.43,-0.07,0.80,-0.57,-0.28,0.42,-3.58,-0.64,15.36,
52132.1,0.46,-0.16,0.88,-0.28,0.58,0.10,-2.63,1.37,16.41,
52132.2,0.27,-0.17,0.79,0.08,0.98,-0.07,0.11,0.34,20.09,
52132.3,0.17,-0.12,0.74,0.27,-0.08,-0.16,3.12,0.64,20.11,
52132.4,0.27,-0.17,0.88,1.22,-0.59,-0.10,0.79,-0.70,21.09,
52132.5,0.21,0.06,0.85,1.20,0.65,-0.26,0.55,-5.07,19.86,
52132.6,0.32,0.14,1.00,1.02,0.13,-0.56,0.28,-7.38,19.07,
52132.7,0.30,0.29,0.86,1.10,2.18,-0.84,1.14,-11.97,17.75,
52132.8,0.09,0.44,0.85,0.74,0.98,-0.71,8.54,-16.55,19.98,
52132.9,0.07,0.72,0.57,0.29,-0.46,-0.24,12.13,-21.10,23.09,
52133.0,-0.11,0.58,0.72,0.03,0.38,0.16,12.43,-20.19,23.45,
52133.1,-0.08,0.52,0.76,-0.18,-0.05,0.03,13.01,-20.23,24.37,
52133.2,-0.04,0.49,0.79,-0.35,-0.23,0.07,11.91,-20.36,24.28,
52133.3,-0.02,0.46,0.82,-0.48,0.01,0.16,10.25,-18.67,22.10,
52133.4,-0.02,0.45,0.87,-0.65,-0.61,0.27,11.40,-18.13,20.76,
52133.5,0.07,0.36,0.83,-0.67,-1.16,0.43,9.01,-14.03,21.43,
52133.6,0.23,0.22,0.75,-0.61,-0.91,0.45,3.04,-11.82,19.14,
52133.7,0.29,0.16,0.90,-0.58,-0.40,0.46,0.28,-11.46,17.58,
52133.8,0.41,0.13,1.02,-0.57,0.37,-0.09,0.15,-7.43,18.18,
52133.9,0.38,0.05,0.91,-0.06,-0.57,-0.11,1.14,-4.79,18.08,
52134.0,0.40,0.12,0.78,0.48,-0.11,-0.32,-3.14,-5.99,17.24,
52134.1,0.28,0.18,0.71,0.33,-0.09,-0.33,-2.36,-6.52,14.75,
52134.2,0.32,0.18,0.69,0.40,-0.17,-0.33,-1.77,-8.59,14.56,
52134.3,0.29,0.27,0.64,0.16,0.49,-0.43,-2.97,-10.26,12.05,
52134.4,0.26,0.33,0.71,-0.40,0.72,-0.37,-2.26,-10.93,11.69,
52134.5,0.25,0.31,0.78,-0.50,0.96,-0.50,0.28,-10.78,11.21,
52134.6,0.11,0.25,0.84,-0.77,0.79,-0.26,2.28,-8.45,12.41,
52134.7,0.20,0.15,0.89,-0.94,0.65,-0.36,4.91,-6.72,13.07,
52134.8,-0.07,-0.06,0.95,-1.19,1.12,-0.59,9.18,-3.59,13.56,
52134.9,-0.08,-0.17,1.05,-0.85,0.13,-0.43,10.98,-1.17,14.26,
52135.0,-0.18,-0.25,0.98,-0.71,0.82,-0.22,14.16,2.08,15.72,
52135.1,-0.11,-0.26,0.93,-0.47,0.31,-0.17,14.82,3.42,17.08,
52135.2,-0.23,-0.31,1.01,-0.25,0.03,-0.30,15.34,4.95,16.60,
52135.3,-0.08,-0.25,0.76,0.21,0.51,-0.21,14.82,6.85,18.75,
52135.4,-0.12,-0.23,0.72,0.03,0.52,-0.34,15.51,6.85,17.75,
52135.5,-0.34,-0.30,0.84,0.03,-0.06,-0.06,16.74,9.20,18.89,
52135.6,-0.17,-0.30,0.86,-0.01,-0.12,0.21,16.88,8.22,17.41,
52135.7,-0.22,-0.29,0.86,-0.02,0.02,0.05,17.17,8.73,17.24,
52135.8,-0.20,-0.31,0.86,-0.00,-0.15,0.00,18.59,8.22,16.41,
52135.9,-0.17,-0.29,0.87,0.04,0.06,-0.01,16.24,8.89,16.91,
52136.0,-0.23,-0.29,0.85,0.05,0.04,-0.00,16.88,8.90,18.75,
52136.1,-0.19,-0.29,0.87,0.02,-0.02,0.03,15.68,8.39,16.24,
52136.2,-0.20,-0.29,0.86,-0.00,0.04,0.03,15.78,6.67,17.48,
52136.3,-0.20,-0.29,0.86,0.01,0.03,0.03,17.05,7.02,17.92,
52136.4,-0.21,-0.28,0.86,-0.01,-0.02,0.02,15.85,6.50,18.75,
52136.5,-0.20,-0.29,0.86,-0.01,0.01,0.02,17.22,7.87,17.41,
52136.6,-0.21,-0.28,0.86,0.02,0.02,0.01,16.88,8.22,17.75,
52136.7,-0.20,-0.29,0.85,0.01,-0.01,-0.02,17.22,7.72,17.51,
52136.8,-0.20,-0.29,0.86,-0.01,0.01,0.01,16.63,7.70,17.37,
52136.9,-0.20,-0.29,0.87,-0.02,-0.01,0.03,17.05,7.02,18.59,
52137.0,-0.22,-0.29,0.86,0.00,0.03,0.01,16.53,6.87,16.43,
52137.1,-0.20,-0.28,0.86,-0.00,-0.03,0.01,16.88,7.53,17.08,
52137.2,-0.20,-0.29,0.87,0.01,-0.00,-0.00,16.91,7.69,17.49,
52137.3,-0.20,-0.29,0.87,0.01,-0.00,0.00,16.34,7.68,17.43,
52137.4,-0.20,-0.29,0.87,0.01,-0.00,0.02,17.73,8.39,16.24,
52137.5,-0.20,-0.28,0.86,-0.00,0.00,0.01,16.72,7.63,17.71,
52137.6,-0.20,-0.29,0.87,-0.01,-0.01,0.01,17.57,7.15,17.07,
52137.7,-0.20,-0.29,0.86,-0.01,0.02,0.02,15.85,6.50,18.42,
52137.8,-0.21,-0.29,0.87,-0.00,-0.01,0.02,16.22,7.01,17.73,
52137.9,-0.20,-0.29,0.86,-0.01,-0.01,0.01,16.09,7.22,17.52,
52138.0,-0.20,-0.29,0.86,-0.01,0.01,0.02,17.28,6.92,18.81,
52138.1,-0.21,-0.29,0.86,-0.00,-0.01,0.01,16.03,6.39,16.61,
52138.2,-0.20,-0.29,0.87,-0.02,0.00,0.01,17.39,7.02,17.24,
52138.3,-0.20,-0.29,0.86,-0.00,-0.02,0.00,15.82,5.91,17.52,
52138.4,-0.19,-0.29,0.87,-0.01,-0.03,0.02,17.39,7.70,18.25,
52138.5,-0.21,-0.29,0.86,-0.01,0.04,0.02,16.03,7.00,17.67,
52138.6,-0.19,-0.29,0.86,-0.00,-0.01,0.02,17.05,6.33,17.58,
52138.7,-0.20,-0.29,0.87,0.01,0.02,0.01,16.19,7.19,16.41,
52138.8,-0.20,-0.29,0.87,0.01,0.01,0.01,16.89,7.76,17.73,
52138.9,-0.21,-0.29,0.87,0.01,0.01,0.01,16.65,7.76,17.86,
52139.0,-0.20,-0.29,0.87,0.00,0.02,0.01,16.02,7.70,17.24,
52139.1,-0.21,-0.29,0.86,0.00,-0.00,0.01,16.02,7.70,17.92,
52139.2,-0.19,-0.29,0.87,0.00,0.00,0.00,16.19,7.19,16.41,
52139.3,-0.20,-0.29,0.87,0.00,0.01,0.01,17.01,7.11,17.86,
52139.4,-0.20,-0.29,0.87,0.00,0.00,0.01,16.16,6.75,17.71,
52139.5,-0.20,-0.29,0.86,-0.00,0.01,0.01,15.85,5.82,18.08,
52139.6,-0.20,-0.29,0.87,0.00,0.00,0.01,16.19,7.87,17.41,
52139.7,-0.20,-0.28,0.87,0.00,0.00,0.01,16.02,7.02,17.58,
52139.8,-0.21,-0.29,0.87,-0.00,0.02,0.00,15.68,6.67,19.59,
52139.9,-0.20,-0.29,0.87,0.00,0.00,0.01,16.60,7.50,17.63,
52140.0,-0.20,-0.29,0.86,-0.00,0.00,0.00,15.34,7.02,16.91,
52140.1,-0.21,-0.28,0.87,-0.00,0.00,0.01,16.83,7.09,18.40,
52140.2,-0.19,-0.29,0.87,-0.01,-0.02,0.01,16.55,6.36,15.79,
52140.3,-0.20,-0.29,0.86,-0.00,0.02,0.01,16.71,6.67,17.58,
52140.4,-0.20,-0.29,0.87,-0.01,-0.01,0.01,17.22,7.02,16.92,
52140.5,-0.21,-0.29,0.86,0.00,0.02,0.01,16.19,7.87,17.08,
52140.6,-0.20,-0.29,0.86,-0.00,0.01,0.01,16.58,7.68,16.89,
52140.7,-0.20,-0.29,0.87,0.00,0.00,0.02,17.64,8.34,17.59,
52140.8,-0.20,-0.28,0.86,-0.00,0.02,0.01,17.39,6.33,19.26,
52140.9,-0.21,-0.29,0.87,-0.00,0.01,0.01,17.58,8.20,18.54,
52141.0,-0.21,-0.28,0.86,-0.00,-0.01,0.01,17.34,7.73,17.46,
52141.1,-0.21,-0.29,0.86,0.00,0.02,0.00,17.39,7.36,17.24,
52141.2,-0.21,-0.28,0.86,-0.00,-0.00,0.01,17.56,6.85,16.07,
52141.3,-0.21,-0.29,0.87,-0.00,0.01,0.00,16.36,8.04,17.58,
52141.4,-0.21,-0.29,0.87,0.00,0.01,0.01,16.53,7.09,17.41,
52141.5,-0.20,-0.29,0.86,-0.00,0.01,0.01,17.10,6.62,17.41,
52141.6,-0.20,-0.29,0.87,0.00,0.01,0.01,17.56,7.19,18.75,
52141.7,-0.20,-0.28,0.86,-0.01,-0.01,0.02,17.39,8.39,18.25,
52141.8,-0.21,-0.28,0.87,0.00,0.02,0.01,15.85,6.85,18.08,
52141.9,-0.20,-0.29,0.87,-0.01,-0.02,0.01,16.78,7.14,18.47,
52142.0,-0.21,-0.29,0.86,-0.00,0.02,0.01,16.89,7.12,16.74,
52142.1,-0.20,-0.28,0.86,-0.01,-0.00,0.02,16.88,7.19,16.74,
52142.2,-0.20,-0.29,0.86,-0.01,-0.00,0.01,16.38,7.35,17.29,
52142.3,-0.21,-0.29,0.87,-0.09,-0.07,0.05,17.05,7.76,16.96,
52142.4,-0.19,-0.30,0.86,-0.20,-0.00,0.09,16.88,8.56,17.75,
52142.5,-0.20,-0.33,0.84,-0.19,-0.13,0.09,15.76,9.17,18.74,
52142.6,-0.17,-0.34,0.89,-0.25,-0.27,0.05,17.22,8.22,17.08,
52142.7,-0.19,-0.41,0.92,-0.18,-0.25,0.29,15.60,9.74,17.35,
52142.8,-0.03,-0.37,0.96,0.26,-0.27,0.09,12.65,8.96,18.96,
52142.9,-0.11,-0.40,1.01,0.44,-0.18,0.06,14.31,8.39,18.59,
52143.0,-0.11,-0.31,1.09,0.89,-0.18,0.31,12.98,7.46,18.15,
52143.1,-0.09,-0.15,1.03,1.42,-0.81,0.34,10.55,4.28,19.26,
52143.2,-0.05,0.01,0.89,1.35,-0.70,0.61,8.66,1.37,16.07,
52143.3,0.02,0.19,0.75,1.00,-0.82,0.67,5.96,-2.28,14.94,
52143.4,0.22,0.30,0.65,0.47,-0.86,0.79,3.87,-5.47,13.06,
52143.5,0.27,0.23,0.66,-0.11,-0.37,0.61,0.62,-6.33,12.55,
52143.6,0.18,0.09,0.67,-0.52,-0.67,0.58,0.28,-6.33,11.88,
52143.7,0.37,0.03,0.75,-0.60,-0.07,0.47,-0.75,-2.91,14.56,
52143.8,0.36,-0.08,0.82,-0.79,-0.14,0.45,0.16,-0.88,16.93,
52143.9,0.28,-0.13,0.89,-0.40,0.26,0.24,0.50,1.23,18.00,
52144.0,0.28,-0.15,0.84,-0.21,0.07,0.01,3.02,2.23,20.60,
52144.1,0.25,-0.20,0.99,0.40,0.31,0.01,3.68,-0.13,21.57,
52144.2,0.07,-0.15,0.63,0.13,1.51,-0.10,3.70,0.17,22.94,
52144.3,0.12,-0.07,0.80,0.73,-0.74,-0.27,7.75,-0.76,22.40,
52144.4,0.16,0.07,0.98,1.38,1.39,-0.29,7.60,-2.93,22.53,
52144.5,-0.09,0.08,1.13,1.57,2.24,-0.58,8.66,-7.87,21.77,
52144.6,-0.03,0.32,0.91,1.38,0.91,-0.50,14.91,-14.34,24.15,
52144.7,-0.19,0.48,0.77,1.10,-1.21,-0.32,17.53,-18.44,27.77,
52144.8,-0.22,0.56,0.67,0.16,0.10,0.06,16.02,-21.04,25.29,
52144.9,-0.24,0.52,0.72,-0.40,0.31,0.17,16.53,-19.84,25.99,
52145.0,-0.22,0.45,0.75,-0.50,-0.19,0.23,16.53,-20.87,25.46,
52145.1,-0.18,0.47,0.84,-0.80,-0.16,0.28,16.25,-18.65,24.62,
52145.2,-0.14,0.36,0.82,-0.85,-0.54,0.19,12.84,-16.74,24.11,
52145.3,-0.06,0.28,0.89,-0.88,-0.95,0.23,12.43,-11.97,23.11,
52145.4,0.06,0.18,0.86,-0.86,-1.08,0.20,9.07,-10.74,21.97,
52145.5,0.14,0.09,0.91,-0.69,-0.76,0.20,5.92,-8.55,20.43,
52145.6,0.31,0.01,0.68,-0.66,-0.86,0.14,4.21,-5.47,21.10,
52145.7,0.29,-0.00,0.94,-0.40,0.49,0.04,2.67,-1.19,20.60,
52145.8,0.02,-0.14,0.91,0.14,-0.00,0.10,5.24,-1.37,21.43,
52145.9,0.18,-0.03,0.85,0.74,-0.11,-0.05,4.73,-1.88,20.93,
52146.0,0.14,0.02,0.79,0.88,0.31,-0.18,5.92,-5.82,17.41,
52146.1,0.12,0.18,0.71,0.55,0.07,-0.23,6.27,-7.18,15.74,
52146.2,0.18,0.24,0.73,0.20,0.05,-0.32,6.95,-10.95,14.73,
52146.3,0.14,0.29,0.72,0.02,0.11,-0.50,5.58,-11.63,13.39,
52146.4,0.11,0.33,0.81,-0.32,0.18,-0.46,6.31,-9.12,14.03,
52146.5,0.07,0.30,0.81,-0.40,0.19,-0.36,6.51,-8.74,13.68,
52146.6,0.01,0.19,0.88,-0.56,0.37,-0.33,6.61,-6.16,13.39,
52146.7,-0.01,0.13,0.92,-0.55,0.45,-0.30,8.75,-7.02,13.25,
52146.8,-0.04,0.02,0.91,-0.62,0.92,-0.33,9.52,-5.30,14.56,
52146.9,-0.10,-0.00,0.95,-0.76,0.56,-0.33,12.43,-4.10,13.73,
52147.0,-0.13,-0.09,0.99,-0.69,0.35,-0.32,14.57,-2.31,14.98,
52147.1,-0.22,-0.16,1.04,-0.71,0.00,-0.35,15.16,-0.68,17.08,
52147.2,-0.21,-0.21,0.94,-0.32,0.25,-0.09,15.61,2.25,16.47,
52147.3,-0.19,-0.30,0.94,-0.36,-0.30,-0.23,16.68,4.67,16.81,
52147.4,-0.12,-0.24,0.83,0.13,0.52,-0.21,14.31,5.99,15.57,
52147.5,-0.25,-0.30,0.95,-0.13,0.04,-0.39,15.41,5.53,15.16,
52147.6,-0.16,-0.26,0.83,-0.05,-0.23,0.09,14.99,6.67,15.57,
52147.7,-0.13,-0.26,0.88,0.08,0.20,0.11,14.41,6.16,14.66,
52147.8,-0.19,-0.25,0.88,0.08,0.20,0.07,15.34,5.65,15.23,
52147.9,-0.19,-0.25,0.87,0.05,0.05,0.03,15.85,5.48,16.74,
52148.0,-0.19,-0.25,0.88,0.02,0.11,0.02,16.68,4.47,16.88,
52148.1,-0.21,-0.25,0.87,0.01,0.02,0.04,17.39,4.96,16.24,
52148.2,-0.21,-0.25,0.87,0.01,0.04,0.01,15.68,6.33,16.57,
52148.3,-0.22,-0.24,0.88,0.02,0.01,0.01,17.39,5.65,15.57,
52148.4,-0.22,-0.25,0.87,0.00,0.02,0.00,16.36,5.31,17.58,
52148.5,-0.21,-0.24,0.88,0.00,0.01,0.01,17.10,5.45,16.57,
52148.6,-0.22,-0.25,0.87,-0.01,-0.02,0.01,17.83,5.22,16.40,
52148.7,-0.21,-0.24,0.87,0.00,0.02,-0.00,16.88,3.42,16.07,
52148.8,-0.22,-0.25,0.87,-0.00,0.00,0.00,16.71,4.94,16.58,
52148.9,-0.21,-0.25,0.87,-0.00,0.00,0.00,16.53,5.48,17.08,
52149.0,-0.21,-0.25,0.87,-0.01,-0.01,0.01,16.71,5.99,16.24,
52149.1,-0.21,-0.24,0.88,-0.01,-0.02,0.01,16.47,4.73,15.85,
52149.2,-0.21,-0.25,0.87,-0.01,0.01,0.02,17.56,3.77,16.41,
52149.3,-0.21,-0.25,0.87,-0.01,0.00,0.02,17.61,4.68,16.85,
52149.4,-0.21,-0.25,0.88,-0.01,-0.02,0.01,16.86,4.51,15.77,
52149.5,-0.20,-0.25,0.88,-0.01,0.02,0.02,17.22,4.45,16.74,
52149.6,-0.22,-0.25,0.87,0.00,0.01,0.01,16.92,4.63,17.10,
52149.7,-0.21,-0.25,0.87,-0.00,-0.01,0.01,14.99,5.31,16.91,
52149.8,-0.20,-0.25,0.87,-0.01,0.02,0.02,16.76,4.22,17.02,
52149.9,-0.21,-0.25,0.87,0.00,0.01,0.02,16.89,5.49,15.75,
52150.0,-0.20,-0.25,0.88,0.00,0.02,0.01,17.65,4.85,16.53,
52150.1,-0.22,-0.25,0.86,0.01,0.03,0.01,16.36,5.65,16.57,
52150.2,-0.21,-0.25,0.87,0.00,-0.01,0.01,16.07,4.52,15.75,
52150.3,-0.22,-0.25,0.88,0.00,0.02,0.01,16.48,5.74,17.24,
52150.4,-0.21,-0.25,0.87,-0.00,0.01,0.01,17.05,5.99,16.24,
52150.5,-0.21,-0.25,0.87,0.01,0.02,0.00,17.83,5.05,16.82,
52150.6,-0.21,-0.25,0.88,-0.00,0.00,0.00,17.05,4.96,17.04,
52150.7,-0.21,-0.25,0.87,0.00,0.00,0.01,16.61,5.74,16.38,
52150.8,-0.21,-0.25,0.87,-0.00,-0.01,0.00,17.16,5.49,15.73,
52150.9,-0.22,-0.25,0.88,-0.00,0.02,0.01,17.39,5.65,17.24,
52151.0,-0.21,-0.25,0.88,-0.01,-0.02,0.01,16.89,5.53,15.83,
52151.1,-0.21,-0.25,0.87,0.00,0.01,0.01,17.61,4.59,16.66,
52151.2,-0.21,-0.24,0.87,-0.01,-0.00,0.01,17.22,4.45,16.74,
52151.3,-0.20,-0.25,0.87,-0.00,0.01,0.01,17.56,4.45,17.41,
52151.4,-0.20,-0.25,0.87,-0.00,0.00,0.00,16.19,3.42,18.08,
52151.5,-0.21,-0.26,0.87,-0.00,0.01,0.01,16.02,4.96,16.24,
52151.6,-0.21,-0.25,0.88,0.01,0.02,0.01,16.94,4.84,16.56,
52151.7,-0.20,-0.25,0.88,-0.00,0.01,0.01,16.19,4.79,17.41,
52151.8,-0.22,-0.25,0.87,-0.00,0.01,0.01,16.53,4.11,17.75,
52151.9,-0.20,-0.25,0.87,-0.00,0.01,0.01,16.85,5.57,17.43,
52152.0,-0.22,-0.24,0.87,-0.00,0.00,0.01,16.53,6.16,16.41,
52152.1,-0.21,-0.25,0.87,-0.00,0.01,0.01,17.47,5.44,15.79,
52152.2,-0.21,-0.25,0.88,0.00,0.01,0.01,17.05,4.62,15.90,
52152.3,-0.20,-0.25,0.87,-0.00,0.00,0.01,17.00,4.67,16.94,
52152.4,-0.21,-0.25,0.87,0.00,0.00,0.02,16.85,4.63,17.20,
52152.5,-0.21,-0.24,0.87,0.00,0.01,0.01,16.19,6.16,17.08,
52152.6,-0.21,-0.25,0.87,0.00,0.03,0.01,16.02,5.47,16.41,
52152.7,-0.21,-0.25,0.87,-0.00,-0.00,0.01,16.53,5.60,16.35,
52152.8,-0.21,-0.25,0.87,0.00,0.02,0.00,16.34,6.04,17.18,
52152.9,-0.22,-0.25,0.87,-0.00,-0.01,0.01,16.28,5.51,16.71,
52153.0,-0.21,-0.25,0.87,0.00,0.02,-0.00,16.48,5.53,16.92,
52153.1,-0.21,-0.25,0.87,-0.00,0.02,0.00,16.88,3.77,17.41,
52153.2,-0.21,-0.25,0.87,-0.00,-0.00,0.01,15.89,4.41,16.45,
52153.3,-0.21,-0.25,0.87,0.00,0.01,0.02,17.73,4.28,18.25,
52153.4,-0.21,-0.24,0.87,-0.00,-0.01,0.01,17.05,2.91,16.24,
52153.5,-0.20,-0.25,0.87,-0.00,0.02,0.01,17.16,5.64,17.38,
52153.6,-0.22,-0.25,0.87,-0.01,-0.02,0.01,16.36,5.99,17.24,
52153.7,-0.21,-0.25,0.88,0.00,0.02,0.00,16.01,5.42,17.47,
52153.8,-0.21,-0.24,0.88,-0.01,-0.01,0.02,16.71,3.94,15.57,
52153.9,-0.21,-0.25,0.87,-0.00,0.00,0.01,16.71,4.28,16.91,
52154.0,-0.21,-0.25,0.88,-0.00,0.01,0.01,16.36,6.33,17.58,
52154.1,-0.21,-0.25,0.87,-0.00,0.00,0.01,17.73,5.65,16.91,
52154.2,-0.21,-0.26,0.87,-0.01,0.01,0.02,16.60,5.20,17.41,
52154.3,-0.22,-0.25,0.87,-0.00,-0.00,0.01,17.22,4.79,16.41,
52154.4,-0.21,-0.24,0.88,-0.00,0.02,0.01,16.53,5.16,16.75,
52154.5,-0.22,-0.25,0.87,-0.01,-0.01,-0.00,18.67,5.05,17.78,
52154.6,-0.20,-0.25,0.87,-0.02,-0.01,0.01,16.36,5.99,17.24,
52154.7,-0.22,-0.25,0.86,-0.04,-0.02,0.03,16.52,5.63,17.24,
52154.8,-0.20,-0.25,0.88,-0.10,-0.10,0.04,17.39,5.31,15.57,
52154.9,-0.18,-0.28,0.85,-0.17,-0.06,-0.01,15.72,5.91,17.43,
52155.0,-0.16,-0.27,0.89,-0.13,-0.14,-0.01,16.15,6.95,15.84,
52155.1,-0.18,-0.31,0.86,-0.06,-0.07,-0.04,16.19,6.85,17.08,
52155.2,-0.17,-0.30,0.87,0.03,-0.08,-0.02,16.53,6.85,18.08,
52155.3,-0.13,-0.25,0.88,0.05,-0.04,-0.03,13.62,7.02,15.90,
52155.4,-0.15,-0.32,0.87,0.05,0.13,0.01,15.68,5.99,16.24,
52155.5,-0.13,-0.34,1.00,0.04,0.23,0.10,14.65,5.99,15.79,
52155.6,-0.21,-0.33,1.09,0.23,0.16,0.22,15.85,6.16,17.41,
52155.7,-0.18,-0.27,1.22,0.68,-0.37,0.36,16.71,5.31,18.59,
52155.8,-0.17,-0.15,1.02,1.33,-0.67,0.40,14.14,1.37,17.75,
52155.9,-0.19,-0.02,0.95,1.33,-0.39,0.56,12.94,-0.85,15.90,
52156.0,-0.08,0.16,0.82,1.08,-0.91,0.67,12.43,-5.13,16.74,
52156.1,0.03,0.25,0.71,0.70,-1.08,0.67,7.24,-7.55,13.71,
52156.2,0.14,0.31,0.65,0.24,-0.18,0.75,2.67,-8.72,12.55,
52156.3,0.15,0.25,0.64,-0.51,0.40,0.76,4.77,-9.47,13.58,
52156.4,0.20,0.14,0.73,-0.83,-1.02,0.51,3.19,-7.86,14.06,
52156.5,0.32,0.01,0.84,-0.89,-0.64,0.51,1.14,-2.39,15.40,
52156.6,0.34,-0.13,0.85,-0.71,0.15,0.24,-1.35,-1.45,16.49,
52156.7,0.26,-0.18,0.80,-0.51,0.61,0.11,0.96,1.88,18.92,
52156.8,0.24,-0.20,0.85,-0.39,0.70,0.11,2.67,2.99,21.81,
52156.9,0.11,-0.35,0.85,0.30,0.54,0.51,5.00,2.92,24.50,
52157.0,-0.02,-0.05,0.86,0.80,0.82,-0.30,5.41,1.88,23.28,
52157.1,0.22,-0.24,0.81,1.14,-0.40,-0.34,8.20,-0.56,23.18,
52157.2,0.04,0.21,0.48,1.48,1.41,-0.05,8.32,-5.13,22.10,
52157.3,0.09,0.55,0.86,1.54,0.42,-0.24,14.48,-10.95,23.11,
52157.4,-0.38,0.55,0.56,1.30,0.04,0.52,17.90,-17.11,27.47,
52157.5,-0.34,0.53,0.69,0.66,0.33,-0.12,19.27,-20.53,27.80,
52157.6,-0.22,0.53,0.76,-0.17,-0.05,0.04,19.71,-22.36,27.50,
52157.7,-0.25,0.50,0.79,-0.50,0.26,0.06,19.96,-20.53,28.14,
52157.8,-0.27,0.42,0.79,-0.90,-0.04,-0.00,19.44,-20.36,27.63,
52157.9,-0.29,0.32,0.87,-0.85,-0.95,0.07,19.96,-16.08,28.47,
52158.0,-0.15,0.29,0.84,-0.83,-1.38,0.10,17.39,-12.49,24.95,
52158.1,0.04,0.20,0.87,-0.84,-1.11,0.22,12.66,-10.93,21.84,
52158.2,0.06,0.10,0.96,-0.68,-0.95,0.19,10.37,-7.05,21.84,
52158.3,0.42,0.14,0.78,-0.85,-1.17,0.04,9.01,-5.13,21.77,
52158.4,0.15,-0.05,0.94,-0.15,-0.34,-0.03,5.99,-3.41,20.13,
52158.5,0.11,-0.01,0.89,0.77,0.05,-0.01,6.10,-3.59,18.59,
52158.6,0.21,0.08,0.76,0.64,-0.34,-0.29,6.10,-7.01,17.92,
52158.7,0.21,0.15,0.76,0.70,0.18,-0.39,4.62,-8.47,16.66,
52158.8,0.16,0.21,0.72,0.41,0.09,-0.59,4.90,-10.95,13.73,
52158.9,0.09,0.32,0.66,0.17,0.28,-0.92,4.94,-13.62,12.94,
52159.0,0.07,0.36,0.81,-0.30,0.37,-0.80,5.12,-12.78,13.86,
52159.1,0.01,0.45,0.77,-0.57,0.79,-0.60,8.49,-12.83,13.89,
52159.2,-0.10,0.29,0.82,-0.78,1.00,-0.47,10.71,-9.23,13.80,
52159.3,-0.16,0.11,0.93,-1.01,0.43,-0.47,13.97,-6.67,13.89,
52159.4,-0.24,0.06,1.02,-1.17,0.34,-0.23,14.82,-4.04,15.34,
52159.5,-0.20,-0.05,1.05,-0.75,-0.28,-0.13,16.20,-0.35,14.40,
52159.6,-0.17,-0.14,0.93,-0.43,0.05,-0.04,16.36,-0.51,15.90,
52159.7,-0.17,-0.23,0.88,-0.41,0.33,-0.25,15.27,2.21,14.72,
52159.8,-0.17,-0.28,1.12,-0.05,0.08,-0.41,17.39,4.28,16.91,
52159.9,-0.25,-0.15,0.71,-0.28,0.45,-0.26,17.05,3.25,16.91,
52160.0,-0.30,-0.30,0.88,-0.08,0.01,-0.09,17.56,7.19,17.08,
52160.1,-0.25,-0.28,0.88,-0.04,-0.15,0.01,18.59,5.48,16.07,
52160.2,-0.21,-0.25,0.86,-0.01,0.20,0.03,17.27,6.21,17.00,
52160.3,-0.27,-0.26,0.85,-0.02,-0.04,-0.01,17.22,5.82,18.75,
52160.4,-0.21,-0.26,0.87,0.01,-0.09,-0.01,17.05,8.04,18.59,
52160.5,-0.25,-0.25,0.86,0.04,0.08,-0.05,17.05,6.67,18.25,
52160.6,-0.24,-0.25,0.87,0.02,-0.10,-0.00,16.36,8.39,17.24,
52160.7,-0.23,-0.25,0.88,0.02,0.02,0.01,18.24,6.67,16.33,
52160.8,-0.24,-0.25,0.86,0.02,0.01,0.03,17.73,6.94,17.51,
52160.9,-0.24,-0.24,0.87,0.03,0.04,0.01,18.07,7.36,16.91,
52161.0,-0.25,-0.24,0.86,0.01,0.02,0.02,19.02,6.19,18.90,
52161.1,-0.24,-0.25,0.87,0.02,0.05,0.02,18.22,5.46,18.38,
52161.2,-0.26,-0.23,0.86,0.01,0.01,0.01,18.42,7.02,17.58,
52161.3,-0.24,-0.24,0.87,0.01,0.02,0.01,19.08,6.14,17.27,
52161.4,-0.25,-0.24,0.87,-0.00,0.01,0.02,17.73,5.44,16.97,
52161.5,-0.25,-0.23,0.87,0.01,0.02,0.01,18.46,5.46,17.53,
52161.6,-0.25,-0.24,0.86,-0.00,-0.02,0.01,17.78,5.97,16.35,
52161.7,-0.25,-0.24,0.86,-0.00,-0.01,0.01,18.59,6.16,17.41,
52161.8,-0.25,-0.24,0.87,-0.01,-0.02,0.00,17.94,6.06,17.37,
52161.9,-0.25,-0.24,0.86,-0.00,-0.01,0.00,16.53,7.19,19.09,
52162.0,-0.24,-0.24,0.87,-0.00,0.00,0.00,18.42,6.49,18.25,
52162.1,-0.25,-0.24,0.87,-0.00,0.01,0.01,17.94,6.64,17.55,
52162.2,-0.24,-0.24,0.87,-0.00,0.00,0.02,19.78,5.31,18.59,
52162.3,-0.24,-0.24,0.87,-0.00,-0.02,0.01,19.04,6.97,17.75,
52162.4,-0.25,-0.25,0.87,-0.01,-0.01,0.00,18.92,5.82,17.41,
52162.5,-0.25,-0.24,0.87,0.00,0.02,0.01,18.42,5.99,16.57,
52162.6,-0.24,-0.24,0.87,-0.01,-0.01,0.01,18.74,6.01,17.60,
52162.7,-0.25,-0.24,0.87,0.00,0.02,0.00,17.56,5.48,16.41,
52162.8,-0.24,-0.24,0.87,-0.00,-0.01,0.01,18.76,5.65,16.91,
52162.9,-0.25,-0.24,0.86,-0.00,0.01,0.01,18.26,5.80,16.56,
52163.0,-0.24,-0.24,0.87,-0.00,0.01,0.01,18.06,5.95,18.19,
52163.1,-0.24,-0.24,0.86,-0.00,0.00,0.00,19.10,5.41,17.35,
52163.2,-0.25,-0.24,0.87,0.00,0.01,0.00,17.99,5.26,16.65,
52163.3,-0.24,-0.25,0.87,-0.00,-0.01,0.02,17.05,5.31,17.58,
52163.4,-0.25,-0.23,0.86,-0.00,0.01,0.01,17.55,5.70,16.73,
52163.5,-0.24,-0.24,0.87,-0.00,0.01,0.01,17.58,5.76,17.50,
52163.6,-0.24,-0.24,0.87,-0.00,-0.00,0.01,17.20,7.75,16.76,
52163.7,-0.24,-0.24,0.88,0.00,0.02,0.01,19.48,6.16,17.82,
52163.8,-0.25,-0.24,0.87,-0.00,0.01,0.02,18.42,6.33,18.59,
52163.9,-0.25,-0.24,0.87,0.00,0.00,0.00,18.48,5.42,17.90,
52164.0,-0.24,-0.24,0.87,0.00,0.02,0.01,18.76,5.99,17.24,
52164.1,-0.24,-0.24,0.86,-0.01,0.01,0.01,18.24,6.50,18.75,
52164.2,-0.24,-0.25,0.87,0.00,0.01,0.02,17.79,6.84,17.30,
52164.3,-0.25,-0.24,0.87,-0.01,0.00,0.01,18.07,5.99,17.92,
52164.4,-0.25,-0.24,0.87,-0.00,0.03,0.01,18.02,5.80,17.73,
52164.5,-0.25,-0.24,0.86,-0.01,-0.01,0.01,18.76,5.99,15.57,
52164.6,-0.24,-0.24,0.86,0.00,0.02,0.01,19.10,4.96,17.58,
52164.7,-0.25,-0.24,0.86,0.00,0.00,0.01,18.07,5.48,16.32,
52164.8,-0.24,-0.24,0.87,0.00,0.01,0.00,18.42,6.33,17.92,
52164.9,-0.26,-0.24,0.86,0.00,0.00,0.01,17.22,5.82,17.41,
52165.0,-0.24,-0.24,0.86,0.00,-0.00,0.01,18.05,6.61,18.31,
52165.1,-0.25,-0.24,0.86,0.00,0.01,0.01,19.11,4.98,17.91,
52165.2,-0.25,-0.23,0.86,0.01,0.01,0.00,17.56,5.76,17.86,
52165.3,-0.25,-0.24,0.87,-0.00,-0.01,0.01,17.56,6.85,16.41,
52165.4,-0.25,-0.24,0.87,0.00,0.02,0.01,18.59,6.16,18.75,
52165.5,-0.25,-0.24,0.87,-0.00,0.00,0.01,18.23,5.38,17.12,
52165.6,-0.25,-0.24,0.87,0.00,0.01,0.01,17.34,6.50,17.75,
52165.7,-0.25,-0.24,0.87,-0.00,-0.00,0.00,17.53,4.92,18.39,
52165.8,-0.25,-0.24,0.87,-0.00,-0.01,0.02,18.87,5.13,16.88,
52165.9,-0.26,-0.23,0.86,-0.00,0.01,0.01,19.10,6.67,17.58,
52166.0,-0.25,-0.24,0.87,-0.00,0.00,0.01,19.02,5.04,17.84,
52166.1,-0.26,-0.24,0.87,-0.00,-0.01,0.02,18.07,4.96,17.58,
52166.2,-0.25,-0.24,0.86,0.00,0.01,0.01,18.24,6.85,18.42,
52166.3,-0.25,-0.24,0.87,-0.00,0.01,0.01,18.98,5.99,18.13,
52166.4,-0.26,-0.24,0.87,0.00,0.01,0.01,17.90,4.79,17.75,
52166.5,-0.25,-0.24,0.87,0.00,0.01,0.01,19.20,5.00,17.15,
52166.6,-0.25,-0.24,0.87,-0.01,-0.00,0.01,18.59,6.16,17.08,
52166.7,-0.25,-0.23,0.86,0.01,0.04,0.00,18.59,6.50,16.41,
52166.8,-0.25,-0.24,0.87,-0.00,-0.00,0.01,17.73,6.67,17.33,
52166.9,-0.25,-0.25,0.87,-0.00,0.02,0.01,18.93,6.16,17.08,
52167.0,-0.25,-0.24,0.87,0.00,-0.00,0.01,18.59,6.25,17.84,
52167.1,-0.25,-0.24,0.87,0.00,0.02,0.01,18.56,6.14,17.42,
52167.2,-0.25,-0.23,0.87,-0.01,-0.00,0.01,16.53,5.48,17.08,
52167.3,-0.25,-0.24,0.86,-0.00,-0.00,0.01,18.55,6.11,18.05,
52167.4,-0.26,-0.24,0.87,-0.03,-0.04,0.00,18.24,6.66,17.41,
52167.5,-0.24,-0.24,0.87,-0.09,-0.10,-0.00,17.90,7.53,17.41,
52167.6,-0.24,-0.26,0.88,-0.09,-0.09,-0.02,17.77,5.91,16.78,
52167.7,-0.27,-0.28,0.87,-0.12,-0.21,-0.01,17.05,7.91,17.27,
52167.8,-0.17,-0.31,0.92,-0.19,-0.30,0.14,16.39,6.90,17.73,
52167.9,-0.21,-0.34,0.94,0.01,0.12,0.33,15.16,6.50,17.75,
52168.0,-0.17,-0.32,1.12,0.49,-0.12,0.35,17.05,5.99,16.57,
52168.1,-0.15,-0.20,1.09,1.01,-0.49,0.16,16.15,4.96,16.65,
52168.2,-0.15,-0.08,1.02,1.24,-0.88,0.15,15.34,3.25,15.57,
52168.3,-0.17,0.06,0.85,1.20,-0.87,0.45,10.69,-1.97,14.41,
52168.4,-0.04,0.21,0.76,0.81,-1.51,0.75,6.29,-3.30,13.61,
52168.5,0.20,0.24,0.72,0.06,-1.22,0.84,0.11,-4.45,12.72,
52168.6,0.18,0.18,0.64,-0.26,0.11,0.79,-1.59,-4.40,12.28,
52168.7,0.25,0.07,0.65,-0.29,-0.82,0.62,-3.14,-1.54,13.56,
52168.8,0.46,0.03,0.71,-0.30,-0.49,0.55,-3.49,-1.54,13.89,
52168.9,0.49,-0.08,0.73,-0.43,0.45,0.35,-4.41,0.78,16.13,
52169.0,0.44,-0.17,0.75,-0.43,0.37,0.12,-1.60,1.71,18.08,
52169.1,0.46,-0.15,0.83,-0.32,0.49,0.08,-2.41,2.30,20.57,
52169.2,0.35,-0.27,0.97,0.66,1.38,-0.25,-2.20,2.45,22.40,
52169.3,0.00,-0.05,0.86,0.64,0.15,0.09,2.50,0.69,23.78,
52169.4,0.23,-0.05,0.87,1.11,-0.36,-0.48,1.34,-1.92,20.95,
52169.5,-0.03,0.07,0.17,1.59,2.23,-0.14,1.82,-5.13,21.10,
52169.6,-0.11,0.31,0.80,1.67,1.32,-0.49,10.51,-10.81,22.28,
52169.7,-0.33,0.47,0.70,1.52,-0.94,-0.49,15.32,-16.14,24.13,
52169.8,-0.22,0.56,0.70,0.45,0.05,0.05,14.14,-19.16,25.12,
52169.9,-0.15,0.55,0.73,-0.46,0.31,0.28,13.78,-21.27,23.80,
52170.0,-0.17,0.51,0.72,-0.47,-0.69,0.16,13.28,-19.67,23.95,
52170.1,-0.12,0.46,0.77,-0.78,0.10,0.29,12.08,-19.50,23.78,
52170.2,-0.01,0.39,0.85,-0.86,-0.80,0.41,10.10,-16.49,21.64,
52170.3,0.14,0.29,0.89,-0.79,-1.38,0.39,7.81,-13.51,20.60,
52170.4,0.25,0.23,0.85,-0.84,-1.24,0.43,3.03,-8.76,19.90,
52170.5,0.36,0.16,0.77,-0.77,-1.49,0.44,0.17,-6.56,19.65,
52170.6,0.41,0.07,0.77,-0.60,0.24,0.58,-4.51,-3.59,19.59,
52170.7,0.35,-0.06,0.85,-0.61,0.39,-0.00,-3.70,-1.63,20.20,
52170.8,0.39,-0.18,0.86,-0.31,0.26,0.44,-3.83,0.52,21.60,
52170.9,0.31,-0.23,0.88,1.03,0.43,-0.47,-1.26,3.42,20.76,
52171.0,0.27,-0.03,0.67,1.20,-0.13,-0.06,-1.70,0.29,17.21,
52171.1,0.41,0.11,0.66,0.89,0.83,-0.13,-1.77,-5.64,14.56,
52171.2,0.25,0.29,0.68,0.27,0.43,-0.12,0.96,-9.45,13.99,
52171.3,0.32,0.28,0.80,-0.20,0.27,-0.42,1.31,-10.78,14.56,
52171.4,0.21,0.29,0.81,-0.38,0.42,-0.54,3.19,-9.58,12.72,
52171.5,0.13,0.27,0.79,-0.49,0.41,-0.56,4.56,-9.24,13.32,
52171.6,0.05,0.18,0.85,-0.52,0.62,-0.35,4.90,-8.55,12.38,
52171.7,0.09,0.08,0.92,-0.66,0.69,-0.46,9.47,-6.58,13.37,
52171.8,-0.20,-0.04,0.94,-0.72,1.54,-0.66,11.27,-5.64,13.60,
52171.9,-0.24,-0.12,1.05,-0.83,-0.15,-0.35,16.04,-3.85,16.52,
52172.0,-0.13,-0.15,0.97,-0.75,0.01,-0.35,17.02,0.02,16.01,
52172.1,-0.16,-0.20,0.92,-0.36,0.33,-0.30,15.68,0.86,15.23,
52172.2,-0.28,-0.26,0.92,-0.38,0.12,-0.26,16.54,3.43,16.91,
52172.3,-0.15,-0.24,0.88,0.11,0.30,-0.15,18.06,5.43,16.08,
52172.4,-0.27,-0.36,0.95,-0.07,0.02,-0.35,17.00,5.69,17.47,
52172.5,-0.21,-0.24,0.86,-0.01,-0.18,0.06,16.37,6.99,16.94,
52172.6,-0.15,-0.26,0.87,0.09,0.14,0.07,16.19,5.32,16.00,
52172.7,-0.23,-0.25,0.86,0.11,0.14,-0.02,18.24,5.13,15.74,
52172.8,-0.21,-0.25,0.88,0.03,0.02,0.01,18.19,4.09,16.46,
52172.9,-0.21,-0.24,0.87,0.02,0.04,0.04,18.24,5.13,14.73,
52173.0,-0.23,-0.24,0.87,0.01,0.03,0.01,16.88,4.45,16.41,
52173.1,-0.23,-0.24,0.87,-0.00,0.01,0.00,18.98,4.99,17.18,
52173.2,-0.22,-0.24,0.87,-0.02,0.03,0.02,19.61,5.82,16.07,
52173.3,-0.24,-0.25,0.87,0.02,0.02,-0.01,17.92,4.23,17.31,
52173.4,-0.23,-0.23,0.87,0.00,0.02,0.00,18.42,4.28,16.57,
52173.5,-0.24,-0.24,0.87,0.00,0.01,0.01,17.90,4.79,16.41,
52173.6,-0.22,-0.24,0.87,0.00,-0.00,-0.00,18.24,4.32,17.47,
52173.7,-0.23,-0.24,0.87,0.01,0.04,0.01,18.93,5.13,16.07,
52173.8,-0.24,-0.23,0.86,-0.00,0.01,0.01,17.85,4.65,16.55,
52173.9,-0.23,-0.24,0.87,-0.02,-0.05,0.02,19.44,5.31,17.58,
52174.0,-0.22,-0.25,0.87,-0.04,-0.03,0.01,19.89,6.42,16.51,
52174.1,-0.22,-0.25,0.87,-0.01,-0.00,-0.01,17.60,5.48,16.92,
52174.2,-0.22,-0.24,0.87,0.02,-0.00,-0.02,17.39,3.94,16.57,
52174.3,-0.22,-0.24,0.87,0.02,0.04,-0.00,18.16,4.88,16.83,
52174.4,-0.22,-0.24,0.87,-0.00,0.00,0.03,18.66,6.62,16.51,
52174.5,-0.22,-0.25,0.86,-0.00,0.01,0.02,18.10,5.17,17.71,
52174.6,-0.23,-0.25,0.87,0.00,0.02,0.01,17.33,5.84,17.45,
52174.7,-0.23,-0.25,0.88,0.00,-0.00,-0.00,17.05,3.59,15.90,
52174.8,-0.23,-0.24,0.87,0.00,0.01,0.01,16.53,6.50,17.41,
52174.9,-0.23,-0.23,0.87,-0.01,-0.01,0.01,17.78,5.52,16.96,
52175.0,-0.22,-0.25,0.87,-0.00,-0.01,0.03,17.90,5.82,18.08,
52175.1,-0.23,-0.24,0.86,0.00,0.02,0.01,16.88,5.82,16.41,
52175.2,-0.23,-0.25,0.88,-0.01,0.01,0.01,18.93,3.42,17.75,
52175.3,-0.23,-0.24,0.87,-0.01,-0.01,0.03,18.64,3.88,16.13,
52175.4,-0.22,-0.25,0.87,-0.01,0.01,0.01,18.56,5.21,16.62,
52175.5,-0.22,-0.24,0.87,-0.01,0.01,0.02,18.75,4.05,16.58,
52175.6,-0.23,-0.24,0.87,-0.02,-0.02,0.02,18.44,5.03,16.55,
52175.7,-0.22,-0.25,0.87,-0.01,-0.00,0.01,19.27,4.79,16.41,
52175.8,-0.22,-0.25,0.87,-0.01,-0.02,0.01,18.46,5.08,16.87,
52175.9,-0.22,-0.26,0.87,-0.01,-0.01,0.01,17.56,5.13,17.75,
52176.0,-0.22,-0.24,0.87,-0.01,-0.00,0.02,17.22,4.45,17.75,
52176.1,-0.22,-0.25,0.88,-0.00,0.01,0.01,18.64,5.49,16.73,
52176.2,-0.23,-0.25,0.87,0.00,0.00,0.01,17.90,3.42,16.74,
52176.3,-0.21,-0.26,0.87,0.00,-0.01,0.01,17.95,4.05,16.91,
52176.4,-0.22,-0.25,0.87,0.01,0.03,0.00,18.59,3.42,15.11,
52176.5,-0.22,-0.25,0.88,0.00,-0.01,0.01,18.07,4.62,15.90,
52176.6,-0.22,-0.25,0.88,0.00,0.01,0.01,17.07,5.36,18.01,
52176.7,-0.22,-0.25,0.87,0.01,-0.00,0.00,18.76,4.62,16.91,
52176.8,-0.22,-0.25,0.87,0.01,0.01,0.01,17.73,5.65,17.24,
52176.9,-0.22,-0.24,0.87,0.00,0.01,0.01,17.80,4.59,17.74,
52177.0,-0.22,-0.25,0.87,0.01,0.02,0.01,17.07,5.56,17.83,
52177.1,-0.22,-0.24,0.87,-0.00,0.02,0.02,17.80,4.89,16.84,
52177.2,-0.22,-0.25,0.86,0.00,0.01,0.00,18.24,4.45,16.41,
52177.3,-0.23,-0.25,0.86,0.00,0.01,0.01,17.39,5.65,17.24,
52177.4,-0.22,-0.25,0.87,0.00,0.01,0.01,17.59,5.44,16.75,
52177.5,-0.22,-0.25,0.87,0.00,0.01,0.01,17.75,4.63,15.92,
52177.6,-0.22,-0.25,0.88,0.00,0.02,0.00,18.18,5.43,16.39,
52177.7,-0.22,-0.25,0.88,0.00,0.00,0.02,18.27,4.60,17.39,
52177.8,-0.22,-0.25,0.87,-0.00,-0.01,0.01,19.10,4.28,16.91,
52177.9,-0.23,-0.25,0.87,0.01,0.02,0.01,18.53,4.55,17.22,
52178.0,-0.23,-0.24,0.86,-0.00,-0.01,0.01,17.56,4.11,18.75,
52178.1,-0.22,-0.25,0.88,0.01,0.03,0.00,18.42,5.99,17.58,
52178.2,-0.22,-0.25,0.88,-0.00,0.01,0.01,17.22,5.13,17.08,
52178.3,-0.22,-0.24,0.87,0.00,0.01,0.01,17.90,4.79,15.40,
52178.4,-0.22,-0.24,0.87,0.01,0.02,0.01,18.47,3.98,17.43,
52178.5,-0.22,-0.24,0.87,0.00,-0.01,0.01,19.44,3.59,17.92,
52178.6,-0.23,-0.25,0.86,0.00,0.02,0.00,18.42,4.62,17.58,
52178.7,-0.23,-0.24,0.87,0.01,0.03,0.01,17.71,4.60,16.70,
52178.8,-0.22,-0.24,0.87,0.00,0.01,0.01,18.24,3.77,17.41,
52178.9,-0.23,-0.24,0.87,0.00,0.01,0.01,17.83,3.53,16.62,
52179.0,-0.22,-0.24,0.88,0.00,-0.00,0.01,18.02,4.64,17.26,
52179.1,-0.23,-0.24,0.87,0.00,0.01,0.01,17.96,5.79,16.75,
52179.2,-0.23,-0.24,0.87,-0.00,0.01,0.01,18.22,4.38,16.48,
52179.3,-0.22,-0.24,0.88,-0.00,-0.00,0.01,18.07,3.94,17.24,
52179.4,-0.23,-0.24,0.88,-0.00,0.02,0.00,18.42,4.62,17.41,
52179.5,-0.22,-0.24,0.88,0.00,0.01,0.01,17.93,4.35,17.84,
52179.6,-0.23,-0.24,0.87,0.00,0.00,0.02,17.97,4.47,17.49,
52179.7,-0.23,-0.24,0.87,0.00,0.00,0.00,18.81,5.62,18.17,
52179.8,-0.23,-0.24,0.88,-0.00,0.01,0.01,18.59,5.13,17.08,
52179.9,-0.23,-0.24,0.87,-0.01,-0.01,0.01,18.07,4.96,17.92,
52180.0,-0.22,-0.24,0.88,0.00,0.01,0.01,18.28,4.39,17.89,
52180.1,-0.23,-0.24,0.87,-0.01,0.01,0.02,18.07,4.96,17.24,
52180.2,-0.23,-0.24,0.87,-0.00,0.00,0.01,18.42,4.28,16.57,
52180.3,-0.23,-0.24,0.87,-0.01,-0.00,0.01,18.11,4.48,17.65,
52180.4,-0.23,-0.24,0.87,-0.02,-0.05,0.02,18.76,4.96,17.24,
52180.5,-0.23,-0.25,0.88,-0.11,-0.12,0.08,17.74,5.55,17.57,
52180.6,-0.22,-0.28,0.96,-0.25,0.10,0.12,19.10,4.28,17.24,
52180.7,-0.32,-0.28,0.96,0.11,-0.01,0.28,17.73,6.33,17.58,
52180.8,-0.13,-0.28,1.17,0.54,-0.65,0.32,17.08,4.47,17.50,
52180.9,-0.15,-0.15,1.06,0.83,-1.23,0.56,16.36,2.57,15.90,
52181.0,-0.06,0.01,0.98,1.01,-1.28,0.47,11.40,-0.14,14.31,
52181.1,0.00,0.14,0.83,0.93,-1.10,0.56,7.30,-2.05,14.06,
52181.2,0.10,0.19,0.72,0.50,-1.23,0.67,3.02,-7.01,13.22,
52181.3,0.18,0.12,0.62,-0.01,-0.13,0.61,-0.01,-5.63,14.09,
52181.4,0.35,0.10,0.65,-0.58,-1.09,0.70,-0.88,-5.33,14.49,
52181.5,0.44,-0.07,0.71,-0.71,0.07,0.63,-2.80,-1.88,15.90,
52181.6,0.39,-0.20,0.76,-0.51,0.57,0.38,0.11,2.06,17.75,
52181.7,0.32,-0.20,0.82,-0.18,0.38,0.06,0.96,3.25,20.26,
52181.8,0.30,-0.19,0.93,0.02,0.61,-0.10,1.41,1.43,22.10,
52181.9,0.25,-0.12,0.78,0.73,0.43,-0.11,2.74,0.45,22.31,
52182.0,0.33,0.02,0.85,0.86,-0.87,-0.55,4.04,-2.91,19.59,
52182.1,0.14,0.12,0.81,1.48,1.46,-0.50,3.02,-6.33,19.92,
52182.2,0.37,0.19,0.76,1.91,3.05,-0.29,8.37,-11.65,19.86,
52186.1,-0.82,0.12,-0.71,2.82,2.97,-0.15,13.83,-15.47,24.67,
52186.2,-0.09,0.44,0.82,0.05,0.12,-0.00,13.97,-19.33,23.28,
52186.3,0.29,-0.12,0.93,-0.75,-0.57,0.16,7.47,-0.85,10.88,
52186.4,0.20,0.17,0.89,0.29,-0.34,-0.36,11.23,1.54,10.88,
52186.5,-0.02,-0.15,0.97,0.43,0.17,-0.58,11.59,1.61,13.06,
52186.8,-0.03,-0.17,0.91,-0.70,0.45,-0.19,12.77,3.08,12.38,
52186.9,-0.04,-0.15,0.86,0.28,0.05,-0.13,12.52,2.67,12.46,
52187.0,-0.11,-0.17,0.89,0.15,0.16,-0.06,13.62,3.59,13.22,
52187.1,0.02,-0.18,0.91,-0.04,0.00,-0.25,12.60,1.54,13.56,
52187.2,-0.07,-0.15,0.91,-0.01,-0.05,0.09,12.43,1.37,13.73,
52187.3,-0.11,-0.15,0.91,-0.07,-0.15,-0.21,11.86,0.97,13.32,
52187.4,-0.11,-0.14,0.90,0.03,0.07,-0.00,12.94,1.54,13.56,
52187.5,-0.11,-0.15,0.91,0.02,0.04,0.03,12.61,1.31,12.33,
52187.6,-0.12,-0.15,0.89,0.02,0.07,0.01,12.77,2.40,12.72,
52187.7,-0.12,-0.14,0.91,0.01,0.03,-0.00,13.45,1.71,12.05,
52187.8,-0.13,-0.14,0.91,0.00,0.03,-0.01,14.06,0.37,13.03,
52187.9,-0.12,-0.15,0.91,-0.02,-0.04,0.02,12.43,0.69,12.72,
52188.0,-0.12,-0.16,0.91,-0.03,-0.03,-0.00,12.73,0.65,13.23,
52188.1,-0.10,-0.15,0.91,-0.04,-0.05,0.00,12.82,1.27,12.23,
52188.2,-0.11,-0.15,0.91,-0.01,-0.00,-0.01,11.60,0.90,11.87,
52188.3,-0.12,-0.14,0.90,0.00,-0.00,0.01,12.40,2.32,12.36,
52188.4,-0.11,-0.15,0.90,-0.00,0.02,0.03,13.80,2.40,12.05,
52188.5,-0.12,-0.15,0.90,-0.00,0.01,0.03,13.20,1.79,12.59,
52188.6,-0.16,-0.16,0.89,0.06,0.04,-0.09,13.02,2.50,13.09,
52188.7,-0.06,-0.16,0.93,-0.02,-0.11,0.06,12.98,1.62,12.81,
52188.8,-0.16,-0.25,0.90,0.00,0.13,-0.02,11.08,1.34,12.83,
52188.9,-0.06,-0.14,0.92,-0.08,-0.12,0.06,12.93,1.54,12.34,
52189.0,-0.07,-0.28,0.95,0.24,0.34,0.14,10.89,0.86,12.89,
52189.1,-0.18,-0.21,0.89,0.00,0.05,0.02,13.01,0.83,12.19,
52189.2,-0.09,-0.16,0.91,-0.00,-0.03,0.03,14.31,2.23,13.22,
52189.3,-0.12,-0.14,0.91,-0.00,0.03,0.04,13.11,1.03,11.04,
52189.4,-0.12,-0.15,0.91,-0.02,-0.04,0.04,13.15,0.38,11.89,
52189.5,-0.11,-0.15,0.91,-0.02,-0.01,0.02,13.45,3.08,13.73,
52189.6,-0.12,-0.16,0.90,-0.01,-0.01,0.00,12.41,2.27,11.93,
52189.7,-0.12,-0.15,0.90,-0.00,0.01,0.00,13.28,1.54,11.88,
52189.8,-0.12,-0.16,0.90,0.01,0.02,0.03,13.62,1.88,12.55,
52189.9,-0.11,-0.14,0.91,0.01,0.03,0.03,14.51,1.28,11.71,
52190.0,-0.13,-0.15,0.90,0.01,-0.00,0.03,13.62,2.57,11.55,
52190.1,-0.10,-0.16,0.90,0.14,0.10,0.11,14.20,1.37,12.52,
52190.2,-0.11,-0.04,1.06,-0.19,-0.02,0.32,12.94,-0.51,12.55,
52190.3,-0.08,0.03,0.96,0.07,0.06,0.08,12.65,1.54,12.54,
52190.4,-0.14,-0.12,0.90,-0.00,0.06,-0.01,13.83,1.00,12.25,
52190.5,-0.11,-0.14,0.90,0.00,0.04,0.01,13.80,0.34,12.05,
52190.6,-0.14,-0.14,0.90,-0.00,0.02,0.00,12.95,0.70,12.90,
52190.7,-0.13,-0.15,0.90,-0.00,-0.01,0.01,14.38,1.27,13.34,
52190.8,-0.13,-0.14,0.91,-0.00,0.01,0.01,12.08,0.99,13.12,
52190.9,-0.13,-0.13,0.91,0.02,0.02,0.01,14.32,1.01,11.48,
52191.0,-0.14,-0.14,0.90,0.02,0.04,0.03,13.45,1.03,12.72,
52191.1,-0.14,-0.14,0.90,0.01,0.02,0.02,14.65,-0.51,11.88,
52191.2,-0.14,-0.14,0.90,0.00,0.00,0.01,15.21,-0.20,11.59,
52191.3,-0.15,-0.13,0.90,0.02,0.04,-0.00,14.82,0.00,13.39,
52191.4,-0.15,-0.14,0.90,-0.01,0.01,0.02,12.44,1.03,12.39,
52191.5,-0.14,-0.13,0.91,-0.02,0.01,0.01,13.86,0.29,12.21,
52191.6,-0.14,-0.14,0.90,-0.02,0.00,-0.00,15.68,1.20,12.55,
52191.7,-0.13,-0.14,0.91,-0.03,-0.03,0.02,14.07,0.80,13.30,
52191.8,-0.13,-0.15,0.90,-0.00,0.01,0.00,13.97,1.88,12.89,
52191.9,-0.14,-0.14,0.91,-0.00,0.01,0.01,14.65,1.20,13.56,
52192.0,-0.13,-0.14,0.91,-0.01,0.01,0.02,14.44,1.07,13.01,
52192.1,-0.14,-0.14,0.90,-0.01,0.01,0.01,15.90,1.05,12.86,
52192.2,-0.14,-0.15,0.90,-0.01,0.00,0.01,13.99,-0.20,13.46,
52192.3,-0.13,-0.15,0.91,-0.00,-0.00,0.00,13.45,0.34,11.71,
52192.4,-0.14,-0.15,0.91,0.01,0.02,-0.01,14.80,0.68,13.37,
52192.5,-0.15,-0.14,0.90,0.02,0.01,0.02,14.57,2.48,12.97,
52192.6,-0.13,-0.14,0.90,0.00,0.03,-0.00,13.97,1.20,12.55,
52192.7,-0.14,-0.14,0.91,0.00,-0.00,0.00,13.78,0.33,11.81,
52192.8,-0.14,-0.14,0.90,0.01,-0.01,-0.00,13.45,-0.34,12.38,
52192.9,-0.14,-0.14,0.91,-0.00,0.02,-0.00,14.72,2.58,12.99,
52193.0,-0.14,-0.14,0.90,0.00,-0.00,0.00,13.56,1.10,12.58,
52193.1,-0.14,-0.14,0.90,0.00,0.02,0.01,15.68,0.17,13.89,
52193.2,-0.13,-0.14,0.90,0.00,0.00,0.01,14.33,0.93,12.58,
52193.3,-0.14,-0.14,0.91,-0.01,0.01,0.01,13.31,1.26,12.49,
52193.4,-0.14,-0.14,0.90,-0.00,-0.01,0.01,15.34,-0.17,13.56,
52193.5,-0.14,-0.15,0.90,-0.00,-0.01,0.02,14.97,0.34,13.06,
52193.6,-0.14,-0.14,0.89,0.00,0.00,0.01,13.65,0.83,12.82,
52193.7,-0.13,-0.14,0.90,0.00,-0.00,0.02,14.05,1.18,12.89,
52193.8,-0.14,-0.14,0.91,0.00,0.01,0.01,14.48,1.71,12.72,
52193.9,-0.14,-0.14,0.91,0.01,0.01,0.02,13.11,1.03,13.06,
52194.0,-0.14,-0.14,0.90,0.00,0.00,0.00,12.96,0.97,12.11,
52194.1,-0.14,-0.13,0.90,-0.00,0.02,-0.01,13.62,1.54,12.55,
52194.2,-0.14,-0.16,0.92,0.03,-0.01,0.06,14.14,1.71,13.39,
