Clock Time (s),Elapsed Time (s),ax,ay,az,gx,gy,gz,mr,mtheta,mphi,
52060.4,0.0,0.08,-0.01,0.91,0.16,-0.05,0.06,15.482832428208994,6.088233643819452,0.6066630101124972,
52060.5,0.09999999999854481,0.07,-0.02,0.89,-0.24,0.20,-0.18,15.245658398376897,5.931656323918783,0.5094037375776553,
52060.6,0.19999999999708962,0.11,-0.01,0.94,0.05,-0.02,-0.06,16.948560410843157,6.08394132059938,0.5245283569399729,
52060.7,0.2999999999956344,0.11,-0.02,0.89,0.02,0.09,-0.06,14.725413406760437,6.036632338048545,0.5504904017802157,
52060.8,0.4000000000014552,0.13,-0.04,0.83,0.20,0.27,-0.29,16.526769194249674,6.0475960394791235,0.560272150192394,
52060.9,0.5,0.10,-0.09,0.87,-0.06,0.27,-0.61,16.79681219755701,6.045910651880222,0.5971479816699553,
52061.0,0.5999999999985448,0.06,-0.04,0.83,-0.27,0.21,-0.68,16.565198459420884,6.131979534705862,0.4971378867554176,
52061.1,0.6999999999970896,-0.06,-0.14,0.91,-0.50,0.27,-0.78,15.497209426216063,0.16646372456188435,0.6000455817646375,
52061.2,0.7999999999956344,-0.09,-0.07,0.96,-0.33,0.28,-1.02,16.46623818605816,0.5181137233370141,0.6232865764547834,
52061.3,0.9000000000014552,-0.13,0.00,0.91,-0.34,0.50,-0.99,16.113848081696688,0.7853981633974483,0.5921884621935207,
52061.4,1.0,-0.18,-0.13,0.95,-0.31,0.60,-0.89,16.57071211505408,0.8762831744124902,0.7565818451617163,
52061.5,1.0999999999985448,-0.20,-0.35,1.38,-1.18,-0.78,-0.91,18.538646121008945,1.0369412836529313,0.8019531457337323,
52061.6,1.1999999999970896,0.13,-0.26,0.95,-0.28,0.33,-0.22,21.944320449720013,1.3408434678222705,0.8942162409192703,
52061.7,1.2999999999956344,-0.18,-0.22,0.49,-0.08,0.40,0.03,23.418494827806505,1.3598969047583953,0.8772888999666683,
52061.8,1.4000000000014552,-0.11,-0.23,1.23,-0.78,0.01,-0.49,25.928229789169947,1.3098989788079527,0.8603332223817629,
52061.9,1.5,-0.20,-0.19,0.69,-0.01,-0.38,0.01,25.50531121158885,1.3431070070262408,0.9141537201393313,
52062.0,1.5999999999985448,-0.03,-0.34,0.68,-0.10,-1.19,0.11,23.706596128503982,1.4232944733375537,0.8731219236937698,
52062.1,1.6999999999970896,0.03,-0.31,1.42,0.63,0.36,-0.04,24.356996941330845,1.5939104891261135,0.8692498058780974,
52062.2,1.7999999999956344,0.01,-0.34,0.87,-0.09,-0.01,-0.16,23.734116794184697,1.4264798001236707,0.9076878389628188,
52062.3,1.9000000000014552,-0.19,-0.36,0.75,-0.07,0.08,0.14,24.076773039591497,1.4605055849595905,0.8494616502563707,
52062.4,2.0,-0.07,-0.30,0.90,0.10,-0.23,0.21,23.34710474555678,1.4080609446595005,0.9072403103383602,
52062.5,2.099999999998545,-0.04,-0.20,0.98,-0.07,0.23,0.00,23.456233713023924,1.4312596139915073,0.873075073371755,
52062.6,2.1999999999970896,-0.14,-0.27,0.79,-0.10,-0.19,0.07,24.878603256613903,1.3710885161146025,0.9012713048784062,
52062.7,2.2999999999956344,-0.08,-0.33,0.84,-0.02,-0.01,0.04,24.17134460471738,1.3317316438719158,0.8687178177712066,
52062.8,2.400000000001455,-0.12,-0.30,0.90,0.10,0.18,-0.09,25.483267058993828,1.3679910003864932,0.8540943164208841,
52062.9,2.5,-0.11,-0.24,0.89,0.07,-0.00,-0.06,24.40324978358415,1.3726878635114557,0.9093453709867679,
52063.0,2.599999999998545,-0.12,-0.27,0.88,0.00,0.13,0.01,24.156763028187367,1.3727751153061087,0.892371380737192,
52063.1,2.6999999999970896,-0.11,-0.29,0.89,0.01,-0.16,0.13,24.39417553433606,1.3215907130517215,0.8886269789359962,
52063.2,2.7999999999956344,-0.10,-0.27,0.89,-0.01,-0.00,0.03,23.301592220275417,1.3259509792251682,0.8958569273042732,
52063.3,2.900000000001455,-0.09,-0.27,0.88,-0.01,0.00,-0.01,23.93557603234148,1.3124554300440359,0.8843600719878904,
52063.4,3.0,-0.12,-0.27,0.87,0.00,0.09,-0.01,22.96888547579094,1.2736121567667773,0.8931834431680601,
52063.5,3.099999999998545,-0.11,-0.27,0.87,0.00,0.00,0.01,23.995072410809684,1.334882494520972,0.8436776103873374,
52063.6,3.1999999999970896,-0.11,-0.27,0.88,-0.01,0.02,0.02,23.202717513256932,1.3245209838968441,0.9375794479665384,
52063.7,3.2999999999956344,-0.11,-0.28,0.87,-0.01,0.04,0.04,24.87334718127016,1.3243937164103792,0.852992290681982,
52063.8,3.400000000001455,-0.12,-0.27,0.88,-0.01,0.00,0.02,23.76304063035705,1.24406556284266,0.8865695883312894,
52063.9,3.5,-0.12,-0.28,0.87,-0.01,0.03,0.01,24.42288066547433,1.2835034574816926,0.8974626211287483,
52064.0,3.599999999998545,-0.14,-0.29,0.87,0.01,-0.02,0.03,22.66077668571843,1.3381212933514246,0.8718616945329541,
52064.1,3.6999999999970896,-0.19,-0.36,0.81,-0.04,-0.22,0.06,23.606935421608625,1.313417829310441,0.906166365757181,
52064.2,3.7999999999956344,-0.05,-0.16,0.91,-0.14,0.49,0.23,23.888920025819502,1.3220086765114154,0.84252493084683,
52064.3,3.900000000001455,-0.12,-0.20,1.00,0.28,0.17,0.22,25.29876281560029,1.1793233857129946,0.8784160741662105,
52064.4,4.0,-0.21,-0.15,0.78,-0.23,-0.76,0.12,24.116477769359275,1.146307354390022,0.9048101999117496,
52064.5,4.099999999998545,0.08,-0.26,0.94,-0.14,-0.49,-0.08,23.365754856199278,1.2886425510890236,0.9159833353531102,
52064.6,4.19999999999709,-0.15,-0.33,0.90,0.15,-0.19,0.15,22.902030477667257,1.236383364002745,0.8034029045470433,
52064.7,4.299999999995634,0.00,-0.18,0.81,-0.04,-0.28,-0.09,22.078691084391757,1.157202165386911,0.8404077866787203,
52064.8,4.400000000001455,-0.12,-0.31,0.87,0.07,-0.27,-0.02,20.807409737879436,1.1524979505664137,0.7194991203027314,
52064.9,4.5,0.01,-0.29,0.82,-0.29,-0.33,0.21,19.254656579643274,1.2149053513045676,0.7133397084037035,
52065.0,4.599999999998545,-0.02,-0.36,0.75,-0.46,0.25,0.30,19.779911526596877,1.1174576309403337,0.777971212011181,
52065.1,4.69999999999709,0.01,-0.42,0.97,-0.76,0.10,0.16,23.65002325580252,1.115435820897979,0.7539899573179322,
52065.2,4.799999999995634,0.10,-0.45,1.02,-0.55,-0.32,-0.50,23.939016270515378,1.1104149010625057,0.7564681706735136,
52065.3,4.900000000001455,-0.05,-0.60,0.86,-0.73,0.31,-0.46,28.114298853074747,1.2449172731476164,0.6772184279730687,
52065.4,5.0,-0.06,-0.32,0.37,-0.08,0.21,-0.05,30.747609663191707,1.15378309661827,0.6778507777884896,
52065.5,5.099999999998545,-0.16,-0.32,0.56,0.13,0.66,0.54,32.03454541584756,1.2205687263076803,0.6260041861287955,
52065.6,5.19999999999709,0.10,-0.43,0.88,0.78,-1.14,0.38,27.359119137866994,1.1266549139558926,0.7461507099922946,
52065.7,5.299999999995634,0.10,-0.41,0.75,0.26,-0.05,0.79,22.330369455071718,0.9410233192184622,0.6519838909026237,
52065.8,5.400000000001455,-0.15,-0.40,0.85,0.36,0.70,0.59,20.999164269084616,0.7859264253662701,0.6911604063539788,
52065.9,5.5,-0.28,-0.43,0.73,-0.01,0.04,0.65,23.2832321639415,0.48262879513746343,0.6782499304531078,
52066.0,5.599999999998545,-0.17,-0.42,1.01,-0.37,0.95,0.27,22.900875529114604,0.43353434249206146,0.6721209335715443,
52066.1,5.69999999999709,0.17,-0.26,0.85,0.16,-1.60,0.13,24.501536686501932,0.33365226845165,0.6663660055964974,
52066.2,5.799999999995634,0.14,-0.33,0.87,0.19,-0.01,-0.61,19.061086013131572,0.42163609133921026,0.6546859959634348,
52066.3,5.900000000001455,-0.26,-0.36,0.77,-0.44,1.02,-0.52,20.79657904560267,0.5281803637995801,0.7123082703726789,
52066.4,6.0,-0.28,-0.54,0.82,0.35,0.27,-0.38,23.289373113074557,0.6004748418263383,0.7192888885671811,
52066.5,6.099999999998545,-0.11,-0.35,0.76,-0.05,-0.34,-0.39,23.257158037903082,0.49784551215410167,0.7875420225486337,
52066.6,6.19999999999709,0.12,-0.29,0.84,-0.27,-0.84,-0.31,21.964997154563896,0.8134915454679501,0.7271111867980317,
52066.7,6.299999999995634,-0.07,-0.44,0.93,-0.04,0.33,-0.14,22.055588860876057,0.8857249579522917,0.7458553844732609,
52066.8,6.400000000001455,-0.06,-0.42,0.83,0.04,-0.10,0.05,22.28044434027293,0.9935329253708349,0.6615633700806929,
52066.9,6.5,0.04,-0.33,0.87,0.12,0.12,-0.18,22.292144356252496,0.9724790102986658,0.725382605321385,
52067.0,6.599999999998545,-0.12,-0.36,0.89,0.13,0.98,-0.36,22.33807511850562,0.9638950284783523,0.7888996677998459,
52067.1,6.69999999999709,-0.23,-0.33,0.80,0.00,0.49,-0.03,25.42795508883874,0.9131426518145157,0.8074196194256961,
52067.2,6.799999999995634,-0.19,-0.33,0.81,-0.02,-0.23,0.13,25.957921719583023,0.8415865976591584,0.8077608330036843,
52067.3,6.900000000001455,-0.09,-0.34,0.86,-0.08,-0.02,0.09,24.47067837228874,0.8366663292612669,0.7982260053772672,
52067.4,7.0,-0.14,-0.36,0.84,-0.05,-0.00,0.13,24.568219308692278,0.8104124913186007,0.8278188342731294,
52067.5,7.099999999998545,-0.15,-0.35,0.85,0.07,-0.17,0.15,25.003829706666934,0.8085569615539496,0.7871148407812067,
52067.6,7.19999999999709,-0.10,-0.38,0.87,0.19,-0.25,-0.01,22.908020429535156,0.7813749396866926,0.7621872279325564,
52067.7,7.299999999995634,-0.09,-0.31,0.87,0.07,0.06,-0.09,23.769941102156732,0.754308753202333,0.7470452315939206,
52067.8,7.400000000001455,-0.08,-0.31,0.87,0.04,-0.05,0.05,22.747050358233263,0.8271540783474592,0.7547452530815887,
52067.9,7.5,-0.12,-0.33,0.86,-0.00,0.20,-0.03,22.55303748943809,0.8400312426368078,0.8087923178734631,
52068.0,7.599999999998545,-0.11,-0.31,0.86,-0.04,-0.18,0.09,22.46646834729482,0.7849495317541509,0.7775740481006079,
52068.1,7.69999999999709,-0.06,-0.35,0.92,-0.21,-0.09,0.16,23.829120839846357,0.8429830887824991,0.7139244992058181,
52068.2,7.799999999995634,-0.16,-0.44,1.23,-0.10,0.35,0.34,24.20275604140983,0.8279849041475352,0.8246032983909328,
52068.3,7.900000000001455,-0.19,-0.28,1.36,1.14,-0.22,0.72,24.384152640598362,0.6424620881558671,0.7901542262112773,
52068.4,8.0,-0.21,-0.20,1.04,1.99,-0.88,0.92,23.931431215036014,0.18193145159042964,0.6354590087037552,
52068.5,8.099999999998545,-0.12,0.10,0.67,1.92,-0.97,1.08,21.038994747848577,6.11539179965991,0.6692970364207229,
52068.6,8.19999999999709,0.09,0.33,0.54,0.92,-1.45,0.74,20.07847852801601,5.607646068159141,0.6243958569355439,
52068.7,8.299999999995634,0.23,0.35,0.44,0.02,-1.23,0.51,17.79151202118583,4.967013646579231,0.6892608359817601,
52068.8,8.400000000001455,0.23,0.19,0.59,-0.61,-0.62,-0.16,16.26476559929469,4.686392671292912,0.6036803462185554,
52068.9,8.5,0.23,0.07,0.84,-0.31,-0.14,0.01,15.940746532079356,4.490210104080755,0.419279320436698,
52069.0,8.599999999998545,0.28,0.13,0.89,-0.30,-0.13,-0.08,18.126944033675397,4.319505572690418,0.3638870317480026,
52069.1,8.69999999999709,0.39,0.13,0.79,-0.34,-0.50,-0.01,18.402114008993642,4.134063494104273,0.3332013482799222,
52069.2,8.799999999995634,0.42,0.08,0.86,-0.12,-0.03,-0.05,19.644790658085416,3.8036311771217237,0.2724846116915312,
52069.3,8.900000000001455,0.36,0.08,0.85,-0.03,1.32,-0.10,20.467159060309275,3.898317988843238,0.1817613859690281,
52069.4,9.0,0.09,0.10,0.89,-0.19,0.41,-0.06,19.862650880484207,5.536364486531253,0.1017103028736825,
52069.5,9.099999999998545,0.33,0.14,0.92,0.31,-0.46,-0.33,20.760720122384964,5.087187064542803,0.1732294143463348,
52069.6,9.19999999999709,0.30,0.10,0.85,0.63,0.94,-0.44,19.95383922958186,4.981229462063668,0.10206362992674493,
52069.7,9.299999999995634,0.22,0.23,0.78,0.62,1.75,-0.87,21.59245701628233,5.299201108304175,0.32962514791250647,
52069.8,9.400000000001455,-0.06,0.43,0.86,1.06,2.30,-0.72,29.287977055440344,5.656841713813682,0.610347529252654,
52069.9,9.5,-0.15,0.43,0.85,1.17,-1.02,-0.44,35.42218655023995,5.581270670083078,0.6810465848944093,
52070.0,9.599999999998545,-0.27,0.56,0.74,0.23,-0.31,-0.02,37.87128859703615,5.500811605277775,0.7465070493656496,
52070.1,9.69999999999709,-0.33,0.51,0.68,-0.18,-0.07,0.09,35.027911727649425,5.529261004823392,0.7390261704521353,
52070.2,9.799999999995634,-0.32,0.52,0.72,-0.15,-0.02,0.12,36.48633305773547,5.481507519556518,0.7458349005000462,
52070.3,9.900000000001455,-0.29,0.50,0.76,-0.31,0.07,0.12,34.636267119884614,5.511742548437377,0.7381910535378234,
52070.4,10.0,-0.35,0.44,0.75,-0.51,0.15,0.15,35.18014354717729,5.541340964835246,0.7458590105985476,
52070.5,10.099999999998545,-0.20,0.43,0.83,-0.72,-0.37,0.09,34.39575119109917,5.574605934967462,0.737417112228648,
52070.6,10.19999999999709,-0.14,0.37,0.86,-1.06,-0.16,0.16,32.41482685438872,5.6490420780025214,0.651777932526404,
52070.7,10.299999999995634,-0.25,0.26,0.91,-0.90,-1.95,0.19,30.435965567072124,5.6399105451456775,0.61950089231985,
52070.8,10.400000000001455,0.01,0.17,0.91,-0.93,-2.23,0.39,26.78503686762443,5.692330322492093,0.4507297852017585,
52070.9,10.5,0.53,0.07,1.06,-1.16,-0.20,0.48,21.430086327404283,5.509243271055459,0.20301027013842135,
52071.0,10.599999999998545,0.15,-0.08,0.89,0.01,0.93,0.16,22.508003021147836,0.16245118877431078,0.19069373926547706,
52071.1,10.69999999999709,0.01,-0.07,0.92,0.55,-0.77,-0.00,21.411099925038883,0.0,0.24724417805470006,
52071.2,10.799999999995634,0.27,0.01,0.84,1.02,-1.23,0.01,18.68645766323837,5.573437120788151,0.1558420276575632,
52071.3,10.900000000001455,0.31,0.17,0.68,1.22,0.97,0.04,16.240877439350374,4.701751083809148,0.35468130876587983,
52071.4,11.0,0.17,0.32,0.61,0.61,0.76,-0.19,17.633096721789965,5.025076338835623,0.6355645392388134,
52071.5,11.099999999998545,0.14,0.47,0.64,0.25,-0.29,-0.70,19.227807987391596,4.971077454200097,0.8004452563396991,
52071.6,11.19999999999709,0.23,0.40,0.68,-0.29,0.19,-0.59,18.596064099695937,4.902377268303406,0.7921742755225222,
52071.7,11.299999999995634,0.06,0.36,0.62,-1.06,0.53,-0.84,18.016883748306753,5.106930053205872,0.751850884390353,
52071.8,11.400000000001455,0.12,0.08,0.89,-1.66,-0.03,-0.78,15.693355281774513,5.305967124713471,0.56908433621525,
52071.9,11.5,0.03,0.02,1.03,-1.34,1.49,-0.57,15.798784763392403,5.892840249328669,0.5534839383726841,
52072.0,11.599999999998545,-0.15,-0.14,1.13,-0.95,0.34,-0.35,19.94641822483425,6.269369260596155,0.6194786583533802,
52072.1,11.69999999999709,-0.08,-0.12,1.00,-0.86,0.14,-0.32,20.526029815821666,0.30086586289462397,0.6312886145326095,
52072.2,11.799999999995634,-0.11,-0.24,0.76,-0.98,0.15,-0.51,22.969917283264213,0.5143060346096867,0.7485191693474814,
52072.3,11.900000000001455,-0.23,-0.55,0.91,0.49,0.07,-0.11,23.312387265142966,0.7655682376786042,0.7592312018331225,
52072.4,12.0,-0.24,-0.40,0.94,-0.01,-0.23,-0.03,24.43829781306382,0.6971037360071489,0.7877383073392834,
52072.5,12.099999999998545,-0.14,-0.30,0.79,0.09,-0.18,0.17,25.15347689684271,0.7006193258059534,0.8140148181096641,
52072.6,12.19999999999709,-0.14,-0.32,0.87,0.08,0.05,-0.05,24.339422754042463,0.66451903435541,0.7535425329724598,
52072.7,12.299999999995634,-0.16,-0.33,0.88,0.09,-0.01,-0.05,24.4830819138441,0.6682645919977482,0.7472394475293207,
52072.8,12.400000000001455,-0.15,-0.30,0.87,0.04,0.06,0.01,24.016390236669626,0.6423042212738508,0.7694988012384818,
52072.9,12.5,-0.15,-0.31,0.86,-0.01,0.04,0.02,24.255217995309792,0.7098977272594362,0.7801971196365206,
52073.0,12.599999999998545,-0.16,-0.31,0.87,-0.01,0.00,0.03,26.10316072815704,0.6169821281505596,0.8072506524941843,
52073.1,12.69999999999709,-0.15,-0.31,0.87,0.00,0.02,0.01,24.09309652161797,0.6333035747070669,0.7529576892843057,
52073.2,12.799999999995634,-0.16,-0.31,0.87,0.01,0.02,0.01,23.581547871164016,0.6179125452615009,0.7699661800168729,
52073.3,12.900000000001455,-0.16,-0.30,0.87,-0.00,0.00,0.01,24.95510769361655,0.6013052328231583,0.7662822124605527,
52073.4,13.0,-0.17,-0.31,0.86,0.01,0.02,0.02,23.778147530873806,0.5374026148136286,0.7997886284125312,
52073.5,13.099999999998545,-0.16,-0.30,0.87,0.01,0.03,0.00,24.38271929051393,0.5363434358878657,0.8106706059808316,
52073.6,13.19999999999709,-0.16,-0.30,0.87,0.00,-0.02,0.02,23.210183110005833,0.6042463597674639,0.7946219718462507,
52073.7,13.299999999995634,-0.18,-0.31,0.86,-0.02,-0.02,0.01,24.380084085170832,0.6259814348060442,0.7853588793264679,
52073.8,13.400000000001455,-0.14,-0.31,0.85,-0.00,-0.01,-0.01,23.81073917374259,0.6462940725538796,0.8063677508470626,
52073.9,13.5,-0.16,-0.29,0.86,-0.01,-0.02,-0.01,23.305057391047118,0.7045901741917043,0.748238950930807,
52074.0,13.599999999998545,-0.15,-0.32,0.87,-0.02,0.01,-0.01,23.115111940027457,0.6324730870428135,0.7406274790504278,
52074.1,13.69999999999709,-0.15,-0.31,0.87,0.01,-0.02,0.01,22.916339149174764,0.6525409481868553,0.8238136863785347,
52074.2,13.799999999995634,-0.14,-0.30,0.87,0.01,-0.01,0.00,23.262918991390567,0.5758466661111955,0.7980465243274332,
52074.3,13.900000000001455,-0.16,-0.31,0.87,0.01,0.05,0.01,23.939097727358064,0.6587452827761171,0.7775396056521205,
52074.4,14.0,-0.15,-0.30,0.87,0.00,-0.01,0.02,24.9690788776839,0.6509920241317046,0.7986661973389164,
52074.5,14.099999999998545,-0.15,-0.31,0.87,-0.00,0.00,0.01,23.577383230545326,0.6772349514180822,0.7261286526845229,
52074.6,14.19999999999709,-0.15,-0.30,0.87,-0.00,0.03,0.02,24.380084085170832,0.6259814348060442,0.7853588793264679,
52074.7,14.299999999995634,-0.15,-0.30,0.87,-0.01,-0.04,0.03,23.46709611349474,0.6482438678326421,0.7765448602596713,
52074.8,14.400000000001455,-0.16,-0.32,0.86,-0.01,-0.02,0.01,21.545055117126065,0.5644354044263239,0.7516516144477394,
52074.9,14.5,-0.15,-0.30,0.87,-0.00,0.04,0.00,24.815362177489973,0.6213931114512832,0.7703017373316863,
52075.0,14.599999999998545,-0.16,-0.30,0.87,-0.01,-0.03,0.01,24.412707756412438,0.6929585055772505,0.7447272372250168,
52075.1,14.69999999999709,-0.16,-0.30,0.86,0.00,0.04,-0.00,24.031552176253616,0.7221805464566865,0.7605394996881523,
52075.2,14.799999999995634,-0.14,-0.30,0.86,-0.00,-0.00,0.01,23.198318904610307,0.6662352301910306,0.8156510093763132,
52075.3,14.900000000001455,-0.15,-0.30,0.87,-0.01,0.01,0.02,23.232845284209162,0.6482438678326421,0.7864994766921926,
52075.4,15.0,-0.15,-0.30,0.87,-0.00,0.02,0.02,24.09819287830521,0.6093766326458308,0.7830477222021882,
52075.5,15.099999999998545,-0.15,-0.30,0.87,0.00,-0.01,0.01,24.098209477054514,0.6401792560219786,0.77477863186477,
52075.6,15.19999999999709,-0.16,-0.31,0.86,0.00,0.02,0.00,24.179172855993233,0.5237844343678245,0.7864070031404775,
52075.7,15.299999999995634,-0.15,-0.30,0.87,0.00,0.00,0.01,23.60866366400267,0.6333035747070669,0.7723647463191563,
52075.8,15.400000000001455,-0.14,-0.29,0.87,-0.00,0.02,0.01,24.49362366004671,0.6672517812443063,0.7968576916405504,
52075.9,15.5,-0.16,-0.30,0.87,-0.01,-0.03,0.02,24.729911039063605,0.658934398498036,0.8083928183774302,
52076.0,15.599999999998545,-0.15,-0.30,0.86,0.00,0.03,-0.01,23.85609146528408,0.6505558763637446,0.7769924961770843,
52076.1,15.69999999999709,-0.15,-0.30,0.86,-0.00,0.01,0.01,23.8292383428426,0.6122431980644896,0.8111710404340856,
52076.2,15.799999999995634,-0.14,-0.30,0.87,-0.00,-0.01,0.03,25.21968080686193,0.5796270398354185,0.7337417212591382,
52076.3,15.900000000001455,-0.15,-0.30,0.87,-0.01,-0.02,0.02,25.714980069990332,0.5868953594571915,0.7503060075058721,
52076.4,16.0,-0.16,-0.31,0.87,-0.00,0.02,0.00,24.68935398101781,0.6191509403827276,0.8163153453554719,
52076.5,16.099999999998545,-0.15,-0.30,0.87,0.01,0.01,0.01,24.400977439438773,0.5825118101428423,0.7520373510788145,
52076.6,16.19999999999709,-0.16,-0.30,0.86,-0.01,-0.02,0.01,24.50588704780955,0.6399411789535373,0.7904797735445417,
52076.7,16.299999999995634,-0.16,-0.30,0.88,-0.00,0.02,0.01,24.378174665056445,0.6742643886950076,0.7371066934384534,
52076.8,16.400000000001455,-0.15,-0.30,0.87,-0.00,-0.00,0.01,25.26329550949361,0.5947323887639224,0.8006127194116219,
52076.9,16.5,-0.15,-0.30,0.87,-0.00,0.03,0.01,23.755346766570256,0.6502140264169434,0.7786821379699052,
52077.0,16.599999999998545,-0.15,-0.30,0.87,-0.00,-0.01,0.02,24.13903270638656,0.6304399546441259,0.7812224161306303,
52077.1,16.69999999999709,-0.15,-0.31,0.87,-0.00,-0.00,0.01,23.87628530571705,0.6424051520961781,0.7585636431626663,
52077.2,16.799999999995634,-0.16,-0.31,0.87,-0.01,0.02,0.01,23.727665287592036,0.5878311357851876,0.7500784311681523,
52077.3,16.900000000001455,-0.16,-0.31,0.86,-0.00,0.01,0.01,24.521447754975643,0.5750355037258041,0.7602384288990934,
52077.4,17.0,-0.16,-0.30,0.87,-0.00,0.00,0.01,22.902130905223643,0.6757080599104267,0.7825692093144597,
52077.5,17.099999999998545,-0.16,-0.30,0.86,0.00,0.04,0.00,24.147857047779624,0.6259814348060442,0.7950218362357726,
52077.6,17.19999999999709,-0.16,-0.30,0.86,-0.00,-0.02,0.01,24.50945939836291,0.5309035305774068,0.7837121654121876,
52077.7,17.299999999995634,-0.16,-0.30,0.87,0.00,0.04,0.00,24.959715543250887,0.6267590242621717,0.7670514605941635,
52077.8,17.400000000001455,-0.15,-0.30,0.87,-0.00,0.00,0.01,25.13207711272588,0.6094158820161989,0.8060661922980803,
52077.9,17.5,-0.15,-0.30,0.87,-0.00,0.00,0.01,24.009660555701323,0.615538015211484,0.7881858637277278,
52078.0,17.599999999998545,-0.16,-0.31,0.88,-0.00,-0.01,0.01,23.228013259855008,0.7020659824947153,0.72345056892382,
52078.1,17.69999999999709,-0.16,-0.31,0.87,-0.00,-0.01,0.02,25.529490790064735,0.5984834012838922,0.7534211821815705,
52078.2,17.799999999995634,-0.16,-0.30,0.87,-0.00,-0.02,0.01,23.816846978557006,0.6402910377840187,0.7842725409749082,
52078.3,17.900000000001455,-0.16,-0.30,0.87,-0.00,0.03,-0.00,24.92587611298748,0.6474671560826342,0.8158745738868,
52078.4,18.0,-0.15,-0.31,0.87,-0.01,-0.00,0.01,24.163472432578892,0.6165153733908496,0.7875119840929515,
52078.5,18.099999999998545,-0.15,-0.29,0.87,-0.00,0.01,0.00,24.524230874789936,0.6521287164902931,0.7615403481504732,
52078.6,18.19999999999709,-0.15,-0.30,0.87,-0.01,0.01,0.02,24.44211324742605,0.6006441551256168,0.801082163146845,
52078.7,18.299999999995634,-0.16,-0.30,0.87,0.00,-0.01,0.02,24.51187059365319,0.5874941290151179,0.7309549725493071,
52078.8,18.400000000001455,-0.14,-0.30,0.87,-0.00,-0.01,0.01,23.71590183821817,0.6068246870004518,0.7871661653180314,
52078.9,18.5,-0.16,-0.30,0.87,-0.01,-0.01,0.02,23.678363541427434,0.6524867462794591,0.7181745959673054,
52079.0,18.599999999998545,-0.17,-0.30,0.86,0.00,0.03,0.00,25.097778786179465,0.6554504423585333,0.7664427128012972,
52079.1,18.69999999999709,-0.14,-0.30,0.88,-0.01,0.01,0.01,23.790931045253355,0.6471330540825844,0.7675674403898333,
52079.2,18.799999999995634,-0.15,-0.30,0.87,-0.00,0.01,0.01,24.16890771218261,0.6139438509225206,0.7256494957732336,
52079.3,18.900000000001455,-0.14,-0.30,0.87,-0.01,-0.03,0.02,24.09309652161797,0.6333035747070669,0.7529576892843057,
52079.4,19.0,-0.15,-0.30,0.86,-0.00,0.02,0.01,24.18111039634036,0.6145479763549804,0.763435779432597,
52079.5,19.099999999998545,-0.15,-0.30,0.86,-0.00,0.01,0.01,24.12936385402649,0.6499479237484185,0.749707322789733,
52079.6,19.19999999999709,-0.15,-0.30,0.87,0.00,0.01,0.02,24.334194048704386,0.6237366513349141,0.7735224130918723,
52079.7,19.299999999995634,-0.16,-0.30,0.86,-0.00,-0.01,0.01,23.55727063986828,0.6392397709509864,0.7174527975602935,
52079.8,19.400000000001455,-0.15,-0.31,0.86,0.01,0.03,0.01,24.960246393014632,0.5758466661111955,0.7305847626347045,
52079.9,19.5,-0.16,-0.30,0.86,0.00,-0.00,0.02,23.965581570243607,0.6414847433608494,0.7804422983914682,
52080.0,19.599999999998545,-0.16,-0.30,0.87,0.00,0.03,0.01,23.0547066778131,0.6488002707713129,0.7358204730337218,
52080.1,19.69999999999709,-0.15,-0.30,0.87,-0.01,-0.00,0.01,24.930158443138705,0.6068246870004518,0.7394131508029026,
52080.2,19.799999999995634,-0.15,-0.30,0.87,0.00,-0.00,0.01,25.197313348847334,0.658934398498036,0.7891622290112578,
52080.3,19.900000000001455,-0.16,-0.30,0.87,-0.00,0.01,0.02,24.771544158570332,0.6212905016384139,0.7425711370182849,
52080.4,20.0,-0.15,-0.30,0.86,-0.01,0.00,0.01,23.142815299785806,0.66451903435541,0.8032328451087513,
52080.5,20.099999999998545,-0.16,-0.30,0.87,0.00,0.01,0.01,24.68254646506312,0.6203185801580725,0.7499967014838126,
52080.6,20.19999999999709,-0.16,-0.30,0.87,-0.00,0.01,0.01,24.14764791858619,0.6045895540577667,0.7553652164132596,
52080.7,20.299999999995634,-0.15,-0.31,0.87,-0.01,0.02,0.01,23.769122827735988,0.6919213822388588,0.759310663526786,
52080.8,20.400000000001455,-0.17,-0.30,0.87,0.01,0.03,0.00,23.9126765544972,0.6086893073274117,0.7380604447831973,
52080.9,20.5,-0.15,-0.30,0.88,-0.00,0.03,0.00,24.615925739244503,0.5543544930997214,0.7753561280305701,
52081.0,20.599999999998545,-0.16,-0.30,0.87,-0.01,-0.00,0.02,25.026759678392246,0.5907126240134983,0.7686776544605706,
52081.1,20.69999999999709,-0.15,-0.30,0.86,-0.01,-0.02,0.02,25.129765219754837,0.7065687984264065,0.7080109297239379,
52081.2,20.799999999995634,-0.16,-0.30,0.87,-0.01,0.00,0.03,24.936663770440504,0.6306233751555268,0.7895230840291347,
52081.3,20.900000000001455,-0.16,-0.30,0.87,-0.01,0.00,0.02,24.927322359210585,0.6654043897911448,0.8009520795973677,
52081.4,21.0,-0.16,-0.31,0.86,-0.00,0.00,0.02,23.050340561475444,0.6718496242585146,0.7471747874125241,
52081.5,21.099999999998545,-0.16,-0.30,0.87,-0.01,-0.00,0.01,23.976163162607982,0.6234748288863219,0.7635523683020775,
52081.6,21.19999999999709,-0.16,-0.31,0.87,-0.00,0.01,0.00,24.832706256064807,0.6647274647651769,0.8162149465376338,
52081.7,21.299999999995634,-0.16,-0.30,0.87,-0.00,0.01,0.01,26.031018036181372,0.6934768685404379,0.7246640530718609,
52081.8,21.400000000001455,-0.15,-0.30,0.87,0.00,0.02,0.00,23.676581256591923,0.6055835847118667,0.7564152661683652,
52081.9,21.5,-0.16,-0.31,0.87,-0.01,-0.01,0.01,24.77109202275911,0.6122431980644896,0.7719367820573341,
52082.0,21.599999999998545,-0.14,-0.31,0.87,-0.01,0.01,0.01,24.329591036431335,0.617488206241158,0.7644620020936149,
52082.1,21.69999999999709,-0.20,-0.32,0.87,-0.07,-0.08,0.04,24.20802552873737,0.6561358154944958,0.7568076101736356,
52082.2,21.799999999995634,-0.08,-0.33,1.02,-0.27,-0.24,0.29,24.436523893549182,0.6733101915783065,0.7342530504145268,
52082.3,21.900000000001455,-0.01,-0.40,1.19,0.36,-0.38,0.63,24.332661177931197,0.7575760308465055,0.6774085273219488,
52082.4,22.0,-0.14,-0.28,1.08,1.19,-0.53,0.40,23.01095825905562,0.6793930778713191,0.6781105581319034,
52082.5,22.099999999998545,0.06,-0.13,0.98,1.39,-0.98,0.54,20.75759138243163,0.4660787225256722,0.5606323039637284,
52082.6,22.19999999999709,-0.02,-0.01,0.83,1.28,-0.46,0.39,16.417527219407923,0.24353462080929908,0.42158991987543404,
52082.7,22.299999999995634,0.02,0.19,0.71,0.89,-0.61,0.55,16.711229757262032,5.773318643767833,0.34260834339669605,
52082.8,22.400000000001455,0.17,0.26,0.62,0.16,-0.80,0.68,16.67018296240326,5.134275508154424,0.2866457773222275,
52082.9,22.5,0.36,0.16,0.63,-0.30,-0.40,0.63,15.905653083102248,4.5483003732443565,0.2968460782018151,
52083.0,22.599999999998545,0.35,0.05,0.64,-0.74,-1.80,0.34,15.862975761186803,4.559339971754911,0.24219421566036997,
52083.1,22.69999999999709,0.42,-0.00,0.90,-0.55,0.52,0.05,17.293365779974703,3.4389577988137168,0.22692825753937637,
52083.2,22.799999999995634,0.24,-0.05,0.77,-0.64,0.44,0.21,18.962236155053024,1.892546881191539,0.06675642251372303,
52083.3,22.900000000001455,0.29,-0.15,0.87,-0.83,-0.59,0.60,20.525623011251085,1.5707963267948966,0.19414695671645224,
52083.4,23.0,0.36,-0.25,0.94,0.18,1.24,0.21,22.964304910011972,1.5801200659320676,0.18792393385744377,
52083.5,23.099999999998545,0.06,-0.11,0.82,1.29,0.36,0.26,25.861123332136984,0.8168014489347931,0.21055170750522573,
52083.6,23.19999999999709,0.26,0.01,0.56,1.43,0.45,-0.55,23.406174399076836,5.834268001834257,0.2223420991360793,
52083.7,23.299999999995634,-0.18,0.43,0.54,1.81,3.78,-0.19,24.502361110717473,5.615020127384268,0.4192822786606584,
52083.8,23.400000000001455,-0.14,0.57,0.78,1.33,-1.18,-0.72,36.9307162129304,5.574514832249487,0.726738581715527,
52083.9,23.5,-0.22,0.53,0.76,0.13,-0.10,-0.00,36.12642523140091,5.452130715823259,0.7562048442000835,
52084.0,23.599999999998545,-0.19,0.46,0.77,-0.52,-0.09,0.16,35.72759717641252,5.441873183637183,0.7574226725198498,
52084.1,23.69999999999709,-0.16,0.41,0.82,-0.89,-0.26,0.18,34.46671727913756,5.532656725336928,0.7353664237847692,
52084.2,23.799999999995634,-0.14,0.34,0.87,-0.99,-0.49,0.13,32.66079147846849,5.572862414019323,0.6768844860289833,
52084.3,23.900000000001455,-0.15,0.29,0.88,-0.88,-1.14,0.22,29.550556678343643,5.590375743295842,0.5963419465506663,
52084.4,24.0,0.06,0.16,0.92,-0.87,-1.96,0.39,24.819768330909135,5.368668946255861,0.5287770667609161,
52084.5,24.099999999998545,0.22,0.04,0.72,-0.59,-2.04,0.47,21.09757332017121,5.468948986911019,0.2827206473606567,
52084.6,24.19999999999709,0.29,-0.23,0.86,-0.63,1.20,0.56,20.668780805843387,3.096169374168216,0.04263316454572116,
52084.7,24.299999999995634,0.13,-0.17,0.91,0.90,-0.01,-0.26,21.143483629714382,0.2494132238580472,0.10365440804351557,
52084.8,24.400000000001455,0.15,-0.01,0.80,0.74,-0.33,-0.02,19.350129198535083,5.835095141640601,0.1641554654257328,
52084.9,24.5,0.30,0.10,0.84,0.44,-0.14,-0.19,15.816320684659882,5.034139534781332,0.2299500588940819,
52085.0,24.599999999998545,0.27,0.21,0.76,0.38,0.22,-0.45,16.66222974274452,4.550402540057815,0.4176532611848466,
52085.1,24.69999999999709,0.30,0.29,0.75,-0.02,-0.15,-0.61,15.852324750647774,4.596017535691597,0.5234115099891424,
52085.2,24.799999999995634,0.21,0.32,0.81,-0.36,0.24,-0.43,15.070384865689395,4.810800650297642,0.4924049755205738,
52085.3,24.900000000001455,0.20,0.21,0.83,-0.40,0.15,-0.39,15.048940162018054,4.730244225524242,0.42179239057829754,
52085.4,25.0,0.18,0.13,0.85,-0.46,0.57,-0.29,15.38226901338031,5.062277801522246,0.2510676348536007,
52085.5,25.099999999998545,0.10,0.08,0.88,-0.61,0.73,-0.30,15.494379626174132,5.209030855837047,0.32966906179603495,
52085.6,25.19999999999709,0.06,0.01,0.92,-0.72,0.52,-0.31,15.466793462123945,5.554188991148894,0.3735798366192735,
52085.7,25.299999999995634,0.03,-0.06,0.94,-0.78,0.40,-0.19,15.900534582208234,6.032459580889519,0.4681096117145086,
52085.8,25.400000000001455,0.00,-0.14,1.05,-0.85,0.43,-0.34,16.50025454349114,0.05268952386966864,0.6414988327150403,
52085.9,25.5,-0.05,-0.18,1.00,-0.64,-0.03,-0.39,19.259374340824262,0.3832693098497003,0.5509022110440467,
52086.0,25.599999999998545,-0.15,-0.25,0.83,-0.66,0.55,-0.19,19.884451211939442,0.5654450501868464,0.6825239590325457,
52086.1,25.69999999999709,-0.04,-0.28,1.25,-0.03,-0.01,-0.25,21.848377514131343,0.6844293630504599,0.766389144213889,
52086.2,25.799999999995634,-0.15,-0.30,0.77,-0.40,0.29,-0.14,23.08860324922233,0.7094383997238936,0.7672307861865263,
52086.3,25.900000000001455,-0.10,-0.33,0.84,0.13,-0.09,0.18,23.815803576616936,0.7589312452205813,0.7692529547010478,
52086.4,26.0,-0.11,-0.32,0.89,0.15,0.13,0.10,22.92715420631178,0.6878823601099023,0.7535473485995706,
52086.5,26.099999999998545,-0.14,-0.29,0.87,0.10,0.26,-0.00,22.996760641446873,0.6641946472241255,0.7780633202629752,
52086.6,26.19999999999709,-0.16,-0.27,0.87,0.05,0.04,0.03,22.795484201920345,0.5521054698434741,0.7778530488665977,
52086.7,26.299999999995634,-0.16,-0.28,0.87,0.02,0.05,0.03,22.529283166581223,0.611624484231972,0.758712845931094,
52086.8,26.400000000001455,-0.16,-0.27,0.87,0.01,0.03,0.04,22.839774517275774,0.5993143382518152,0.7723191665234379,
52086.9,26.5,-0.17,-0.27,0.87,0.00,0.04,-0.00,22.923337453346534,0.6314956243041601,0.8458707806653365,
52087.0,26.599999999998545,-0.16,-0.27,0.88,-0.00,-0.00,0.01,23.632268194145052,0.5230085902105561,0.7469822944639701,
52087.1,26.69999999999709,-0.15,-0.28,0.88,-0.00,-0.01,0.01,23.71063263601374,0.5237844343678245,0.8064094587548629,
52087.2,26.799999999995634,-0.16,-0.27,0.88,-0.01,-0.00,0.01,23.078225668365405,0.5182872762315748,0.7592404721359521,
52087.3,26.900000000001455,-0.15,-0.28,0.88,-0.01,0.01,0.02,23.37322827510141,0.6343168070283024,0.760729896720746,
52087.4,27.0,-0.15,-0.27,0.88,-0.01,-0.01,0.00,22.309121452894555,0.602517427645498,0.7787152826548388,
52087.5,27.099999999998545,-0.15,-0.28,0.88,-0.01,-0.01,0.01,23.5583212474913,0.6112584173499125,0.7116741006753875,
52087.6,27.19999999999709,-0.16,-0.27,0.87,-0.00,-0.00,0.01,23.38304300128621,0.5775983547007766,0.8012585005519894,
52087.7,27.299999999995634,-0.14,-0.28,0.88,-0.01,-0.00,0.01,21.783252741498455,0.5559552914464684,0.7745021693852616,
52087.8,27.400000000001455,-0.15,-0.28,0.87,-0.01,0.00,0.01,22.719731512498118,0.5888612672554778,0.7906922821893114,
52087.9,27.5,-0.15,-0.28,0.88,-0.00,0.00,0.01,21.699652070943444,0.6213900831613774,0.7817399404422171,
52088.0,27.599999999998545,-0.14,-0.27,0.88,0.00,0.04,0.00,24.388107757675666,0.5700004332766101,0.7252772499642222,
52088.1,27.69999999999709,-0.14,-0.28,0.88,-0.00,-0.01,0.02,23.068708242985778,0.5490958338948824,0.7435620664345639,
52088.2,27.799999999995634,-0.15,-0.27,0.88,-0.01,0.00,0.02,22.894047261242385,0.6436263906768684,0.771622551469852,
52088.3,27.900000000001455,-0.16,-0.28,0.87,-0.00,0.02,0.01,22.99877170633249,0.639963243841817,0.7935181966201381,
52088.4,28.0,-0.15,-0.27,0.88,0.00,0.01,0.01,23.41909904330224,0.6457230530443365,0.7640206778473374,
52088.5,28.099999999998545,-0.15,-0.28,0.88,-0.00,0.00,0.01,22.297493132637133,0.5302875062150493,0.8389604548797954,
52088.6,28.19999999999709,-0.15,-0.28,0.87,-0.00,0.02,0.00,23.965894517000613,0.5761737650778052,0.7679221519220072,
52088.7,28.299999999995634,-0.15,-0.28,0.87,-0.01,0.00,0.02,23.380186055718205,0.66451903435541,0.792767998616815,
52088.8,28.400000000001455,-0.15,-0.27,0.87,-0.01,0.01,0.02,23.209118897536804,0.5675902141537612,0.7626733626815296,
52088.9,28.5,-0.15,-0.28,0.88,-0.00,0.01,0.02,24.181232392084567,0.6380753540629281,0.7771006481398901,
52089.0,28.599999999998545,-0.14,-0.28,0.88,-0.01,0.03,0.02,21.850512579800046,0.6164806596060197,0.7444630187037462,
52089.1,28.69999999999709,-0.17,-0.27,0.87,-0.01,0.04,0.02,23.142815299785806,0.66451903435541,0.8032328451087513,
52089.2,28.799999999995634,-0.15,-0.28,0.88,-0.01,-0.02,0.01,24.636002110732175,0.6456221147665415,0.8142777197892708,
52089.3,28.900000000001455,-0.16,-0.28,0.87,-0.01,0.03,0.01,23.765628542077316,0.5638177527266188,0.7886560359271604,
52089.4,29.0,-0.16,-0.27,0.87,-0.01,-0.01,0.01,23.739759897690625,0.5980935632798515,0.8174486071227931,
52089.5,29.099999999998545,-0.16,-0.28,0.88,-0.01,0.03,0.02,24.50282024584109,0.5709578946349764,0.7903558703830417,
52089.6,29.19999999999709,-0.16,-0.28,0.87,-0.01,-0.02,0.02,23.36130561419888,0.5222242114893716,0.7614351923659612,
52089.7,29.299999999995634,-0.16,-0.28,0.87,-0.00,0.01,0.01,24.60846399107429,0.6019401677623457,0.7249645230800977,
52089.8,29.400000000001455,-0.17,-0.28,0.87,0.00,0.01,0.01,23.51444024424141,0.473799544491492,0.8471170329327834,
52089.9,29.5,-0.16,-0.28,0.87,0.00,-0.00,0.01,24.19168452175251,0.5575068175990436,0.8065774352916802,
52090.0,29.599999999998545,-0.17,-0.28,0.87,0.01,0.03,0.00,22.9464114841515,0.6139438509225206,0.7739655093176415,
52090.1,29.69999999999709,-0.15,-0.28,0.88,0.00,-0.00,0.01,24.827100112578595,0.6989996140390012,0.812679643801127,
52090.2,29.799999999995634,-0.16,-0.28,0.87,0.00,-0.00,0.01,24.005403558365774,0.6256711609496564,0.7832977142592551,
52090.3,29.900000000001455,-0.16,-0.27,0.88,-0.00,-0.01,0.01,22.991905097229328,0.5967169798998125,0.8035477170856938,
52090.4,30.0,-0.16,-0.28,0.88,-0.00,-0.01,0.01,24.02211689256382,0.6860235667684261,0.7715376545217678,
52090.5,30.099999999998545,-0.16,-0.28,0.88,-0.01,-0.01,0.02,23.031747654053525,0.5521054698434741,0.7677981497938479,
52090.6,30.19999999999709,-0.16,-0.28,0.88,-0.00,0.01,0.01,23.740564441478643,0.5766773049642322,0.777450551300787,
52090.7,30.299999999995634,-0.16,-0.28,0.87,-0.00,-0.00,0.00,23.169861889963865,0.6020020303932767,0.7770356375234592,
52090.8,30.400000000001455,-0.16,-0.28,0.88,0.00,-0.02,0.02,23.449469077145437,0.5728010719096839,0.7757794296512361,
52090.9,30.5,-0.16,-0.28,0.87,-0.00,0.02,0.00,25.382728379746727,0.6018905994785345,0.7980384452434917,
52091.0,30.599999999998545,-0.15,-0.27,0.87,-0.01,-0.02,0.03,24.012700806031795,0.6135064031065571,0.740779371367559,
52091.1,30.69999999999709,-0.15,-0.28,0.88,0.00,0.00,0.00,22.66654583301126,0.5261169930117914,0.8184057130903621,
52091.2,30.799999999995634,-0.15,-0.28,0.88,0.00,0.02,0.01,23.0630223518081,0.5891947010755152,0.784049419603899,
52091.3,30.900000000001455,-0.17,-0.27,0.87,0.00,0.02,0.01,24.147857047779624,0.6259814348060442,0.7950218362357726,
52091.4,31.0,-0.15,-0.28,0.87,0.00,-0.00,0.02,22.789324255010282,0.6277386210322069,0.777578600983792,
52091.5,31.099999999998545,-0.16,-0.28,0.87,0.01,0.02,0.01,22.70101539579232,0.5610719112134699,0.7736192264224462,
52091.6,31.19999999999709,-0.15,-0.27,0.87,0.01,0.03,0.00,23.01716967830754,0.6369438257289881,0.7242356383741929,
52091.7,31.299999999995634,-0.17,-0.27,0.88,-0.00,0.01,0.03,23.97228399631541,0.5338943074011179,0.77775661626203,
52091.8,31.400000000001455,-0.16,-0.27,0.88,-0.00,0.03,0.01,22.35910105527501,0.5719309280943918,0.746707304229418,
52091.9,31.5,-0.16,-0.28,0.88,0.00,0.01,0.01,22.61178674939245,0.6121634088532484,0.7834541651448198,
52092.0,31.599999999998545,-0.16,-0.27,0.87,-0.00,0.00,0.02,23.10993942008503,0.5720500095502303,0.8179912653044525,
52092.1,31.69999999999709,-0.16,-0.27,0.87,-0.01,0.01,0.01,22.664258205377028,0.5789325574891749,0.7776337014559599,
52092.2,31.799999999995634,-0.16,-0.28,0.87,-0.01,-0.01,0.02,23.971011659919572,0.540840464253295,0.7475071479420617,
52092.3,31.900000000001455,-0.16,-0.28,0.88,-0.01,0.02,0.02,23.865104231911495,0.6341645354720978,0.7755826497379645,
52092.4,32.0,-0.16,-0.27,0.87,-0.00,0.01,0.01,24.374269219814572,0.5543544930997214,0.7851202663784027,
52092.5,32.099999999998545,-0.15,-0.27,0.88,0.00,0.01,0.01,22.450146992837265,0.6325303990074049,0.7178457440824131,
52092.6,32.19999999999709,-0.17,-0.27,0.87,-0.01,0.01,0.02,22.305250502964544,0.5635141077910741,0.783633622451919,
52092.7,32.299999999995634,-0.16,-0.27,0.88,-0.02,0.00,0.02,23.855984574106348,0.5511153587758065,0.7930005283324622,
52092.8,32.400000000001455,-0.17,-0.28,0.87,-0.00,0.01,0.01,23.496991296759678,0.5557033708776579,0.7132077814545695,
52092.9,32.5,-0.16,-0.28,0.87,-0.01,-0.00,0.01,22.319410834518013,0.503399384396654,0.7836355596300681,
52093.0,32.599999999998545,-0.17,-0.28,0.87,-0.01,-0.01,0.02,23.226118918149023,0.6686704333995621,0.7122298754017913,
52093.1,32.69999999999709,-0.15,-0.28,0.87,-0.01,0.01,0.01,24.037649635519696,0.5721849060336315,0.7456002550657326,
52093.2,32.799999999995634,-0.16,-0.28,0.88,-0.00,0.02,0.00,22.960226479719225,0.5287228366274572,0.7435717622501866,
52093.3,32.900000000001455,-0.16,-0.28,0.88,-0.00,-0.00,0.01,23.63560238284609,0.5685530942833225,0.7668497333799088,
52093.4,33.0,-0.16,-0.28,0.88,-0.00,0.01,0.00,22.3796201933813,0.5782290550402082,0.7032452300430616,
52093.5,33.099999999998545,-0.15,-0.28,0.89,-0.00,-0.01,0.01,22.53575159607507,0.5845632361979053,0.7975728960998598,
52093.6,33.19999999999709,-0.16,-0.28,0.87,0.00,0.00,0.02,22.769062343451914,0.6327134730728511,0.7311137978950347,
52093.7,33.299999999995634,-0.16,-0.27,0.87,-0.00,-0.00,0.01,23.83972734743416,0.5647017366341257,0.7952701371580783,
52093.8,33.400000000001455,-0.16,-0.28,0.87,-0.00,0.00,0.01,23.845154644078114,0.5585349694199655,0.7626641695375849,
52093.9,33.5,-0.16,-0.28,0.88,-0.00,0.00,0.02,22.8375151888291,0.5980212698853278,0.7797197016210135,
52094.0,33.599999999998545,-0.15,-0.28,0.88,0.00,0.01,0.01,22.562158584674474,0.5649184453966897,0.8494479298673886,
52094.1,33.69999999999709,-0.16,-0.28,0.89,-0.01,-0.00,0.01,22.559292985375226,0.5738802849534822,0.7346811509719676,
52094.2,33.799999999995634,-0.16,-0.28,0.87,-0.01,-0.00,0.01,22.482341959858186,0.6033309890198124,0.8100945413994669,
52094.3,33.900000000001455,-0.18,-0.29,0.87,-0.08,-0.08,0.05,23.576278332255917,0.5992128962541615,0.7506531684016046,
52094.4,34.0,-0.14,-0.28,0.95,-0.21,-0.00,0.18,23.685525115563724,0.5954724223888337,0.8053925614230041,
52094.5,34.099999999998545,-0.15,-0.32,0.96,-0.12,0.01,0.17,22.637769324736922,0.6187819656027775,0.7272857203023191,
52094.6,34.19999999999709,0.01,-0.27,1.14,0.63,-0.49,0.20,25.139986077959552,0.6045895540577667,0.7188159629444775,
52094.7,34.299999999995634,-0.05,-0.27,1.12,1.04,-0.68,0.04,22.36071107992767,0.5327842946395123,0.72479626432269,
52094.8,34.400000000001455,-0.06,-0.15,0.99,1.35,-0.69,0.13,19.361833590856005,0.3392926144540447,0.5594564806168434,
52094.9,34.5,0.00,0.01,0.90,1.23,-1.18,0.37,15.311051564148036,0.2174902968154302,0.4342452266770537,
52095.0,34.599999999998545,0.05,0.19,0.71,0.79,-0.60,0.54,13.720324340189629,5.573527309856991,0.31150773015982575,
52095.1,34.69999999999709,0.09,0.18,0.73,0.35,-0.89,0.65,13.386567894721933,4.6014260423141735,0.2732256152149671,
52095.2,34.799999999995634,0.23,0.23,0.65,0.01,-0.14,0.85,15.128532645303046,4.136470380766337,0.37268590785307587,
52095.3,34.900000000001455,0.27,0.17,0.61,-0.50,-0.62,0.76,13.953770099869068,4.217689231510394,0.3257399184161664,
52095.4,35.0,0.44,-0.03,0.80,-0.70,0.10,0.41,15.921648783967067,3.1997598948549424,0.3186781724700346,
52095.5,35.099999999998545,0.32,-0.07,0.77,-0.43,0.79,0.04,17.548008434007546,2.653509990378331,0.12549861586465233,
52095.6,35.19999999999709,0.37,-0.09,0.84,-0.44,-0.12,0.11,19.625075796031975,2.326203485335467,0.14469230749929157,
52095.7,35.299999999995634,0.27,-0.13,0.71,-0.34,0.53,0.11,20.631289344100626,1.9347752833045408,0.15308937930638328,
52095.8,35.400000000001455,0.50,-0.28,0.99,0.20,-0.49,-0.12,22.947899686027913,2.031212929268412,0.24366951471728202,
52095.9,35.5,0.30,-0.14,0.68,0.56,1.33,-0.18,22.85680642609549,1.9857020844857713,0.161329933657045,
52096.0,35.599999999998545,0.24,0.10,0.96,0.70,-0.62,-0.29,23.093507745684718,0.5143173545869557,0.12265966349416102,
52096.1,35.69999999999709,0.27,0.06,0.87,0.94,1.34,-0.41,20.785150949656344,5.346497301828419,0.13357472596865277,
52096.2,35.799999999995634,0.19,0.07,0.88,1.44,2.85,-0.49,22.577495432399054,5.511332132102936,0.40399050756714106,
52096.3,35.900000000001455,0.06,0.35,0.79,1.43,1.70,-0.61,27.870401862908256,5.562950485255703,0.614614585235995,
52096.4,36.0,-0.16,0.49,0.76,1.11,-0.92,-0.55,36.7020844094719,5.540461739026605,0.7320182686391505,
52096.5,36.099999999998545,-0.19,0.53,0.73,0.14,-0.14,-0.06,36.100998601146756,5.411281931075844,0.7635038490353495,
52096.6,36.19999999999709,-0.20,0.50,0.75,-0.47,0.11,0.19,35.47448942550125,5.432913765970291,0.781173515585758,
52096.7,36.299999999995634,-0.20,0.48,0.79,-0.60,0.02,0.23,34.12209841144006,5.480945317751078,0.7267823560069592,
52096.8,36.400000000001455,-0.20,0.40,0.88,-0.64,-0.39,0.20,33.01970472308921,5.488560552286088,0.7383822811948084,
52096.9,36.5,-0.05,0.36,0.86,-0.77,-1.62,0.29,30.491447981360285,5.4525269166989165,0.702092067910375,
52097.0,36.599999999998545,0.12,0.29,0.85,-0.95,-1.51,0.37,25.78695406596134,5.371794695425643,0.5953753884627466,
52097.1,36.69999999999709,0.22,0.17,1.03,-0.90,-1.31,0.48,22.020249771517125,5.098507213111291,0.40139629746718924,
52097.2,36.799999999995634,0.31,-0.05,0.80,-0.69,0.57,0.96,20.842327125347595,4.927696891683166,0.2986063875718922,
52097.3,36.900000000001455,0.18,-0.14,0.89,-0.42,0.60,0.20,21.455584354661607,5.4814715753419545,0.14187888375504099,
52097.4,37.0,0.12,-0.16,0.89,0.41,0.37,-0.07,21.25384906316971,5.853423028082898,0.17479158632089717,
52097.5,37.099999999998545,0.02,-0.00,0.75,0.64,0.24,0.01,20.54626730089921,6.104719196661881,0.28628938651187924,
52097.6,37.19999999999709,0.28,0.12,0.84,0.51,-0.17,-0.16,18.793884643681306,5.628674280581376,0.33486053114927933,
52097.7,37.299999999995634,0.25,0.22,0.73,0.46,0.18,-0.26,16.554727421495045,5.509138565380118,0.4267543130947949,
52097.8,37.400000000001455,0.09,0.23,0.73,0.19,0.03,-0.65,16.870574975382436,5.199157116234465,0.489428218656674,
52097.9,37.5,0.12,0.29,0.72,-0.06,-0.01,-0.40,15.35295736983595,5.330269604470225,0.4639537369843396,
52098.0,37.599999999998545,0.08,0.28,0.78,-0.37,0.29,-0.40,15.640885524803254,5.240368498110746,0.5061226306643795,
52098.1,37.69999999999709,0.07,0.26,0.87,-0.50,0.24,-0.25,14.127905011005701,5.257595544113389,0.502710291469398,
52098.2,37.799999999995634,0.01,0.19,0.91,-0.48,0.46,-0.31,14.32092874083242,5.613877863669249,0.502586046685998,
52098.3,37.900000000001455,0.03,0.06,0.90,-0.72,0.08,-0.21,16.582162102693363,5.913066368087842,0.5065291901137599,
52098.4,38.0,-0.01,-0.04,0.88,-0.87,0.89,-0.11,15.993064121674745,5.962644917581452,0.5122827582611851,
52098.5,38.099999999998545,-0.00,-0.15,1.04,-1.03,0.13,-0.45,19.236530352431025,6.134295359570089,0.6425669109666894,
52098.6,38.19999999999709,-0.02,-0.24,1.04,-0.76,0.43,-0.16,19.011696399848173,0.18234212419236484,0.5802470005126946,
52098.7,38.299999999995634,-0.16,-0.34,1.02,-0.36,0.40,-0.11,21.281886664485366,0.5229540274842275,0.6783703729545444,
52098.8,38.400000000001455,-0.17,-0.32,0.90,-0.38,0.04,-0.18,21.632209780787537,0.5436000761871079,0.7382643143701965,
52098.9,38.5,-0.06,-0.30,1.02,0.19,0.30,-0.22,22.273504439131262,0.5474184168915023,0.7967466440318431,
52099.0,38.599999999998545,-0.15,-0.32,0.92,-0.33,0.16,-0.27,23.648137347368397,0.5265781023906199,0.7637382150633936,
52099.1,38.69999999999709,-0.15,-0.27,0.83,-0.03,-0.06,0.07,24.358571386680296,0.6350267353903137,0.745344552292528,
52099.2,38.799999999995634,-0.13,-0.35,0.87,0.03,-0.04,0.10,22.910401567846865,0.5990006134427036,0.7816938048601636,
52099.3,38.900000000001455,-0.15,-0.32,0.87,0.07,0.08,0.00,25.840023219803808,0.5625173519387366,0.8225699531324332,
52099.4,39.0,-0.15,-0.31,0.87,0.03,0.01,-0.02,24.289398922163553,0.6380593075475699,0.7698591537259863,
52099.5,39.099999999998545,-0.18,-0.32,0.86,0.03,0.06,0.00,25.15211919501019,0.5649184453966897,0.7390590075901775,
52099.6,39.19999999999709,-0.17,-0.31,0.87,0.02,0.02,0.01,24.807331577580044,0.5104468350266569,0.7453310804722794,
52099.7,39.299999999995634,-0.15,-0.31,0.87,0.02,0.03,0.00,23.27611866269804,0.546810810220058,0.8128934932361197,
52099.8,39.400000000001455,-0.16,-0.30,0.87,-0.00,-0.02,0.02,23.95752282687006,0.6164640601670822,0.7468995474457951,
52099.9,39.5,-0.15,-0.30,0.86,0.00,0.04,-0.00,24.711545884464616,0.5541370513421143,0.7381195955986295,
52100.0,39.599999999998545,-0.16,-0.31,0.87,0.01,-0.00,0.02,23.442723817850176,0.5349741621269356,0.7924022517228618,
52100.1,39.69999999999709,-0.18,-0.30,0.87,0.02,0.03,0.01,23.755439377119504,0.537789311701318,0.7562529333670454,
52100.2,39.799999999995634,-0.16,-0.30,0.87,0.01,-0.00,0.02,23.852991426653386,0.516315370913643,0.7726652528380608,
52100.3,39.900000000001455,-0.16,-0.30,0.87,0.01,0.01,0.01,25.263430091735366,0.4778225365240763,0.828372228677804,
52100.4,40.0,-0.16,-0.30,0.87,0.00,0.01,0.01,24.304289744816653,0.4855647669962244,0.7828187480809949,
52100.5,40.099999999998545,-0.16,-0.30,0.87,0.00,0.04,0.02,24.337415639299092,0.5102648400733173,0.7836039971003843,
52100.6,40.19999999999709,-0.17,-0.29,0.87,0.01,0.02,0.01,23.390709694235444,0.5511153587758065,0.8134095998154792,
52100.7,40.299999999995634,-0.17,-0.30,0.86,-0.00,-0.03,0.03,23.448901893265706,0.44685403372527965,0.7653462671774726,
52100.8,40.400000000001455,-0.18,-0.30,0.87,-0.00,0.02,0.01,24.8855962355737,0.5080185669134758,0.8054729774806624,
52100.9,40.5,-0.15,-0.30,0.87,-0.00,-0.01,0.01,25.92429555455654,0.5688788272821597,0.7589278811227478,
52101.0,40.599999999998545,-0.17,-0.29,0.86,-0.00,0.02,0.01,24.914981436878495,0.5302875062150493,0.7285547437683318,
52101.1,40.69999999999709,-0.16,-0.30,0.87,-0.00,-0.01,0.01,25.268514004586816,0.486359872849178,0.8106882808962692,
52101.2,40.799999999995634,-0.16,-0.30,0.87,-0.00,-0.01,0.02,25.42853711875695,0.5679794401262689,0.7416417594456134,
52101.3,40.900000000001455,-0.16,-0.30,0.87,-0.01,-0.00,-0.00,25.261409303520658,0.5408163256465801,0.75368002858591,
52101.4,41.0,-0.15,-0.30,0.87,0.01,0.01,0.01,25.545917482055717,0.5390013488712105,0.7244747368697189,
52101.5,41.099999999998545,-0.16,-0.29,0.86,-0.01,-0.01,0.02,24.477853255545103,0.5886551320030774,0.7678210121967983,
52101.6,41.19999999999709,-0.16,-0.30,0.87,-0.00,0.00,0.02,24.737861669918036,0.5374026148136286,0.7606389522517082,
52101.7,41.299999999995634,-0.17,-0.30,0.86,-0.00,0.01,0.02,24.24604297612293,0.5285430918821666,0.7709766640936244,
52101.8,41.400000000001455,-0.16,-0.31,0.87,0.00,0.00,0.01,25.45509182855171,0.5151709296874885,0.8084392374001929,
52101.9,41.5,-0.17,-0.30,0.86,-0.01,-0.00,0.01,23.340122107649737,0.5121241819404642,0.7807800200570435,
52102.0,41.599999999998545,-0.15,-0.30,0.88,-0.01,-0.00,0.03,24.02961089988766,0.5775116438030106,0.7209839469838019,
52102.1,41.69999999999709,-0.16,-0.30,0.87,0.01,0.03,-0.00,22.796229951463463,0.5600378675777021,0.7461143469539517,
52102.2,41.799999999995634,-0.16,-0.31,0.87,-0.00,-0.01,-0.00,23.790329968287537,0.4550433577748624,0.774177386526137,
52102.3,41.900000000001455,-0.16,-0.30,0.87,0.01,0.05,-0.00,23.894825799741668,0.5201012237937263,0.7845806840630817,
52102.4,42.0,-0.16,-0.30,0.86,-0.01,-0.03,0.01,22.719113098886584,0.5965072462609076,0.8005250034341063,
52102.5,42.099999999998545,-0.16,-0.30,0.87,-0.01,0.03,0.01,24.907167643070135,0.5170117243177438,0.7431598518897858,
52102.6,42.19999999999709,-0.16,-0.30,0.87,-0.01,-0.02,0.02,24.22126751431477,0.49784551215410167,0.7483287295807008,
52102.7,42.299999999995634,-0.16,-0.30,0.86,0.00,0.02,0.00,24.58780592082181,0.5450891136221303,0.7782522297602634,
52102.8,42.400000000001455,-0.16,-0.30,0.87,-0.01,-0.01,0.02,24.05148851942432,0.5118916507142646,0.7511098646341591,
52102.9,42.5,-0.15,-0.30,0.86,0.01,0.02,-0.00,22.4957418192866,0.5971347697669784,0.778261985827376,
52103.0,42.599999999998545,-0.15,-0.29,0.86,-0.00,-0.03,0.02,24.012942343661262,0.5842177296479102,0.8218289686321381,
52103.1,42.69999999999709,-0.17,-0.30,0.86,0.00,0.01,0.01,23.924585680843045,0.5302875062150493,0.7661324365312905,
52103.2,42.799999999995634,-0.16,-0.30,0.87,0.01,0.01,0.00,24.09559503311757,0.5196587844813793,0.7794029047055439,
52103.3,42.900000000001455,-0.16,-0.30,0.87,0.01,0.00,0.01,23.004916865748505,0.5320006159243218,0.799859403148746,
52103.4,43.0,-0.16,-0.30,0.87,0.00,0.00,0.01,22.993444718006042,0.5485794758295639,0.7553471731765606,
52103.5,43.099999999998545,-0.15,-0.30,0.88,0.00,0.02,0.01,24.32765915578398,0.48229040689124625,0.7755985210887205,
52103.6,43.19999999999709,-0.16,-0.30,0.87,-0.00,0.01,0.02,22.510348731194725,0.5485794758295639,0.7757531057624392,
52103.7,43.299999999995634,-0.16,-0.30,0.86,-0.00,0.01,0.01,23.27993986246528,0.4985304786209192,0.7369052952242362,
52103.8,43.400000000001455,-0.16,-0.30,0.88,-0.00,0.03,0.00,25.09208839455178,0.5093077570150989,0.7523125187301769,
52103.9,43.5,-0.15,-0.30,0.87,-0.01,0.00,0.01,23.183556672779954,0.6139438509225206,0.7640159532633563,
52104.0,43.599999999998545,-0.16,-0.30,0.86,0.00,0.01,0.01,23.69822567197806,0.5649184453966897,0.7965065994058923,
52104.1,43.69999999999709,-0.17,-0.29,0.86,-0.00,-0.01,0.01,24.397249845013267,0.5372847143007717,0.8330569443845873,
52104.2,43.799999999995634,-0.16,-0.30,0.87,-0.00,0.02,0.01,24.74517124612396,0.45197498741065983,0.7708600895319732,
52104.3,43.900000000001455,-0.16,-0.30,0.87,-0.00,-0.00,0.01,23.724556897864286,0.5118916507142646,0.764054732914386,
52104.4,44.0,-0.15,-0.30,0.87,-0.00,0.01,0.01,24.680008103726383,0.6068246870004518,0.7486965268332046,
52104.5,44.099999999998545,-0.17,-0.29,0.87,-0.00,0.01,0.01,22.964505220012907,0.499499021404813,0.7540079262244177,
52104.6,44.19999999999709,-0.16,-0.30,0.87,-0.00,-0.00,0.01,24.236726264081128,0.5614616060770827,0.7794258778258163,
52104.7,44.299999999995634,-0.17,-0.30,0.86,-0.00,0.01,0.02,22.855277289938968,0.4803175220326522,0.7489050649706926,
52104.8,44.400000000001455,-0.16,-0.29,0.86,-0.00,-0.00,0.01,23.32686648480674,0.5635086167422682,0.7673240594464301,
52104.9,44.5,-0.16,-0.30,0.86,-0.00,0.00,0.02,23.939977025887053,0.49364961716692884,0.7461075790140421,
52105.0,44.599999999998545,-0.18,-0.29,0.86,0.00,0.00,0.01,23.417867110392443,0.5207762944512726,0.7509137367481513,
52105.1,44.69999999999709,-0.16,-0.30,0.88,-0.00,0.02,0.01,24.481254052846232,0.5248501786141451,0.753150423062288,
52105.2,44.799999999995634,-0.17,-0.29,0.87,-0.01,-0.01,0.02,25.77599076660294,0.6060006599253936,0.7747177427600489,
52105.3,44.900000000001455,-0.16,-0.29,0.87,-0.00,0.01,0.01,23.498004170567334,0.5235596104249726,0.7833255555423851,
52105.4,45.0,-0.16,-0.29,0.87,-0.00,-0.00,0.02,22.822556824334995,0.5777652377924054,0.7759335120986899,
52105.5,45.099999999998545,-0.17,-0.30,0.87,-0.01,-0.01,0.01,22.995882240088115,0.5250866384249179,0.7490956349625378,
52105.6,45.19999999999709,-0.16,-0.30,0.88,-0.00,0.01,0.01,23.78228121942889,0.5753304708407055,0.7875729523302127,
52105.7,45.299999999995634,-0.17,-0.30,0.87,-0.00,0.01,0.01,26.25376544421771,0.5219720793840629,0.80218394787111,
52105.8,45.400000000001455,-0.16,-0.30,0.87,-0.00,0.03,0.01,23.80829477304076,0.550035582727624,0.7707375616964287,
52105.9,45.5,-0.17,-0.30,0.86,-0.00,0.01,0.02,24.048074767016175,0.45218450141806577,0.7720508789891886,
52106.0,45.599999999998545,-0.17,-0.29,0.87,-0.00,0.02,0.02,23.528767498532513,0.5078787695241902,0.7584254156951961,
52106.1,45.69999999999709,-0.17,-0.30,0.87,-0.00,0.01,0.01,24.553565932466917,0.5491079056038509,0.7633819387329253,
52106.2,45.799999999995634,-0.17,-0.30,0.86,-0.00,0.01,0.01,23.661373586501693,0.4839151037130276,0.7746485882180207,
52106.3,45.900000000001455,-0.16,-0.30,0.87,-0.01,-0.00,0.02,24.021569474120547,0.47842609213391546,0.8379578575576444,
52106.4,46.0,-0.17,-0.30,0.87,-0.01,0.01,0.02,24.764048538153045,0.46053800513414883,0.7710652850468314,
52106.5,46.099999999998545,-0.16,-0.30,0.88,-0.01,-0.01,0.02,22.959446857448462,0.5815454507094484,0.7645307044256104,
52106.6,46.19999999999709,-0.16,-0.30,0.87,0.00,0.01,0.02,23.531319555010082,0.5273690250818167,0.8288889610032666,
52106.7,46.299999999995634,-0.16,-0.30,0.87,-0.00,-0.00,0.02,24.742202812199242,0.5200576910222834,0.7965042054327451,
52106.8,46.400000000001455,-0.17,-0.30,0.86,-0.00,-0.00,0.01,23.60269687980592,0.5408163256465801,0.8218677792865764,
52106.9,46.5,-0.18,-0.29,0.87,0.01,0.01,-0.00,23.886265928353055,0.43823393611118294,0.7650683579429896,
52107.0,46.599999999998545,-0.17,-0.30,0.85,-0.05,-0.01,0.10,24.282392798074905,0.46100560722200973,0.7713353978006452,
52107.1,46.69999999999709,-0.17,-0.32,0.88,-0.17,0.20,0.15,25.83422729636015,0.42275225878884204,0.7675875046105847,
52107.2,46.799999999995634,-0.19,-0.38,0.97,0.06,0.26,0.21,27.132935705522176,0.4679548329028869,0.7598356883571812,
52107.3,46.900000000001455,-0.11,-0.33,1.09,0.18,-0.77,0.33,26.61956235553094,0.4666506029768039,0.8143553842458336,
52107.4,47.0,-0.10,-0.29,1.07,0.84,-0.66,0.16,23.65121984169104,0.42055608259141325,0.7245487478044612,
52107.5,47.099999999998545,-0.02,-0.16,1.03,1.09,-0.81,0.20,19.080822833410515,0.47277796266391453,0.6315843613639864,
52107.6,47.19999999999709,-0.06,0.01,0.95,0.96,-0.39,0.35,19.05999737670496,0.18761496406435646,0.553913789492414,
52107.7,47.299999999995634,-0.06,0.10,0.77,0.68,-0.55,0.52,17.165992543398126,6.253630933046608,0.47059836665126525,
52107.8,47.400000000001455,0.04,0.06,0.79,0.23,-1.53,0.55,17.066288407266534,6.0424278093569885,0.34337900148148276,
52107.9,47.5,0.18,0.13,0.73,0.14,-0.37,0.71,14.098585035385645,5.572477872603937,0.07400069236857909,
52108.0,47.599999999998545,0.19,0.12,0.69,-0.20,0.10,0.71,14.951187243827828,4.71238898038469,0.12203211835299896,
52108.1,47.69999999999709,0.29,0.03,0.75,-0.44,-0.47,0.54,17.319613159652267,0.10266804361658444,0.09591904251125218,
52108.2,47.799999999995634,0.38,-0.02,0.74,-0.53,-0.10,0.46,16.122341641337343,0.916509811879995,0.08060132334397951,
52108.3,47.900000000001455,0.28,-0.13,0.76,-0.67,0.23,0.22,19.344169664268353,1.3025402723106636,0.11336533849651984,
52108.4,48.0,0.25,-0.29,1.07,-0.37,-0.45,0.13,23.20200422377343,0.8549971043027081,0.25699623227677915,
52108.5,48.099999999998545,0.33,-0.10,0.84,0.04,0.74,0.10,24.047602791130764,1.0370881351556351,0.1493234391668477,
52108.6,48.19999999999709,0.12,-0.15,0.83,0.11,1.34,-0.31,23.93148762613808,0.45645348851051404,0.2627730842505795,
52108.7,48.299999999995634,0.01,-0.18,0.84,0.52,-0.53,0.05,25.61723052946981,0.5319389669689645,0.27994048579767905,
52108.8,48.400000000001455,0.28,-0.07,0.85,1.03,-0.24,-0.33,23.500029787215166,0.17299031688434863,0.20665780962454466,
52108.9,48.5,-0.01,0.11,0.80,1.60,0.72,-0.29,24.018844684955187,5.733332124503002,0.2759705947186942,
52109.0,48.599999999998545,0.01,0.27,0.97,1.65,2.11,-0.21,25.963098813508378,5.503495436736389,0.5525134171817084,
52109.1,48.69999999999709,0.09,0.38,0.71,1.24,1.21,-0.51,29.936482759335636,5.407608885827212,0.6707991493760396,
52109.2,48.799999999995634,-0.14,0.74,0.48,0.81,-1.31,-0.59,38.9678085090758,5.492006861338476,0.8067439034708723,
52109.3,48.900000000001455,-0.26,0.57,0.68,-0.06,0.22,0.10,37.759016141843524,5.351236254247915,0.8160081657665121,
52109.4,49.0,-0.22,0.51,0.73,-0.44,-0.06,0.09,37.76251713008549,5.3358398896727595,0.805500419508779,
52109.5,49.099999999998545,-0.18,0.51,0.79,-0.57,-0.09,0.09,36.16910560132777,5.405360117150536,0.7769724744505547,
52109.6,49.19999999999709,-0.18,0.45,0.80,-0.77,-0.15,0.14,35.17490156347278,5.474788778134846,0.7266444465657412,
52109.7,49.299999999995634,-0.23,0.37,0.90,-0.89,-0.45,0.17,35.92475052105442,5.5116000790392015,0.7148529274998804,
52109.8,49.400000000001455,-0.10,0.33,0.89,-0.98,-1.25,0.17,30.28441513386052,5.574202380486999,0.6466606697338778,
52109.9,49.5,0.03,0.20,0.86,-1.11,-1.32,0.28,28.329016926113056,5.562015856918925,0.6037996287759149,
52110.0,49.599999999998545,0.16,0.08,0.28,-0.92,-1.80,0.36,22.054629899411143,5.4341563467198535,0.371518545694749,
52110.1,49.69999999999709,0.18,-0.03,0.85,-0.24,0.05,0.26,22.031243723403364,5.472750640048539,0.19351873416686988,
52110.2,49.799999999995634,0.25,-0.07,0.92,-0.22,0.36,-0.10,21.100563973505544,5.247553273778585,0.2182529263575901,
52110.3,49.900000000001455,0.19,-0.09,0.92,0.41,0.58,0.10,20.762121760552315,0.0,0.2551418645929992,
52110.4,50.0,0.18,-0.02,0.87,0.47,0.57,-0.09,21.73437369698055,5.990404229416932,0.2694745652403075,
52110.5,50.099999999998545,0.11,0.08,0.80,0.42,-0.33,-0.12,19.157507666708632,5.737993608863159,0.4254089171238621,
52110.6,50.19999999999709,0.16,0.16,0.77,0.34,-0.48,-0.29,18.26465986543412,5.485462377559462,0.49064057221896823,
52110.7,50.299999999995634,0.18,0.24,0.73,0.20,0.22,-0.23,16.388087136697806,5.338626418751424,0.4537181110171701,
52110.8,50.400000000001455,0.11,0.22,0.85,0.11,-0.18,-0.27,17.432960161716654,5.279118197908196,0.5335387920689896,
52110.9,50.5,0.15,0.31,0.79,-0.12,0.11,-0.30,16.762106072925324,5.141194360128292,0.6025693103257295,
52111.0,50.599999999998545,0.13,0.32,0.81,-0.29,0.37,-0.24,16.634109534327347,5.342839525009899,0.5637613648955169,
52111.1,50.69999999999709,0.12,0.20,0.92,-0.52,0.04,-0.31,16.29860730246606,5.285654052554127,0.6585750030392277,
52111.2,50.799999999995634,0.11,0.15,0.89,-0.52,0.47,-0.25,16.194545377996878,5.4178392196343115,0.6316372215852597,
52111.3,50.900000000001455,0.04,0.11,0.92,-0.61,0.33,-0.24,16.81949464163534,5.69703856293037,0.5622795105953603,
52111.4,51.0,-0.03,-0.08,0.97,-0.69,0.48,-0.18,17.062300548284806,5.683819556367728,0.591868244799184,
52111.5,51.099999999998545,-0.05,-0.10,0.93,-0.64,0.47,-0.08,16.352091609332426,5.943892692725542,0.6795077639829938,
52111.6,51.19999999999709,-0.09,-0.13,0.99,-0.61,0.27,-0.18,19.63920568658519,6.108784773473004,0.7095018566599096,
52111.7,51.299999999995634,-0.11,-0.19,0.92,-0.53,0.46,-0.17,18.962750327945574,0.061473207331499156,0.7221012009637058,
52111.8,51.400000000001455,-0.12,-0.26,0.95,-0.59,0.46,-0.24,21.58828849167993,0.20061875577897106,0.7428993710942973,
52111.9,51.5,-0.06,-0.31,1.11,-0.13,-0.47,-0.32,22.27067354167808,0.4466546115598105,0.7390800485651291,
52112.0,51.599999999998545,-0.15,-0.28,0.77,-0.22,0.24,-0.31,21.166778214929167,0.4880490971534728,0.6955326530562744,
52112.1,51.69999999999709,-0.13,-0.33,0.90,0.08,0.13,-0.16,23.22616197308544,0.590528306277228,0.7233603155132409,
52112.2,51.799999999995634,-0.15,-0.33,0.86,-0.02,-0.18,0.05,21.978978593192178,0.5479665267917777,0.779686406102984,
52112.3,51.900000000001455,-0.09,-0.34,0.87,0.00,-0.04,0.10,21.7873059371736,0.5644354044263239,0.7413087433949137,
52112.4,52.0,-0.11,-0.30,0.88,0.03,0.03,0.01,22.715400062512654,0.5416142428323485,0.7685841841364097,
52112.5,52.099999999998545,-0.13,-0.30,0.87,0.03,0.02,0.00,22.424821069520267,0.5905536184219896,0.6819075382729556,
52112.6,52.19999999999709,-0.13,-0.30,0.87,0.03,0.06,0.01,22.59942698388612,0.5185220406868521,0.7803924418150465,
52112.7,52.299999999995634,-0.13,-0.30,0.87,0.03,-0.02,0.04,22.655877824529334,0.5497112682519363,0.7536871466715701,
52112.8,52.400000000001455,-0.13,-0.31,0.88,0.01,0.04,0.01,23.047008482664296,0.5078787695241902,0.7784211919206647,
52112.9,52.5,-0.14,-0.30,0.88,0.03,0.03,0.01,22.74061124948052,0.5297382635014916,0.7544441365255318,
52113.0,52.599999999998545,-0.14,-0.29,0.87,-0.00,0.01,0.00,23.270109582896254,0.48102771648314957,0.7862760987624597,
52113.1,52.69999999999709,-0.14,-0.30,0.87,-0.05,-0.04,0.00,21.80097474885011,0.4741705425314225,0.8056679789372725,
52113.2,52.799999999995634,-0.11,-0.31,0.87,-0.02,-0.09,-0.02,22.9758090173121,0.500005549884017,0.7551668876234253,
52113.3,52.900000000001455,-0.11,-0.30,0.88,-0.02,-0.03,-0.04,21.104776710498502,0.5679607439945007,0.7869603165429557,
52113.4,53.0,-0.13,-0.31,0.87,0.01,0.02,-0.02,21.27294055837133,0.5060749632963413,0.7948100835689857,
52113.5,53.099999999998545,-0.11,-0.30,0.87,0.02,-0.05,0.00,21.9924464305361,0.5377935812644563,0.7119672029723366,
52113.6,53.19999999999709,-0.11,-0.31,0.87,0.02,0.04,0.01,21.30606955775748,0.5244151334651026,0.7395726871447295,
52113.7,53.299999999995634,-0.12,-0.30,0.87,0.02,0.05,0.03,21.355535582138884,0.48686276607084833,0.730954348533833,
52113.8,53.400000000001455,-0.12,-0.28,0.87,0.01,0.02,0.01,22.09909274155842,0.5578401188574966,0.7683849256425539,
52113.9,53.5,-0.12,-0.30,0.87,0.00,0.03,0.01,21.211727888128305,0.45495487545966135,0.7465621733551611,
52114.0,53.599999999998545,-0.13,-0.29,0.87,0.01,0.01,0.02,23.10277905361171,0.5699343347534385,0.7814808484927432,
52114.1,53.69999999999709,-0.12,-0.30,0.87,-0.00,0.01,0.01,20.942478363364735,0.5036766726888756,0.7446169543824281,
52114.2,53.799999999995634,-0.14,-0.30,0.87,-0.01,0.00,0.02,22.618286849361514,0.48627626518596706,0.7263174186941322,
52114.3,53.900000000001455,-0.13,-0.30,0.87,0.00,0.01,0.01,21.610652465855814,0.47914797615911586,0.7861202949991041,
52114.4,54.0,-0.13,-0.29,0.87,0.01,0.02,0.01,21.957110465632766,0.5003101613698667,0.7992166552540123,
52114.5,54.099999999998545,-0.13,-0.29,0.87,-0.01,0.01,0.01,21.556145295483606,0.5686017797358294,0.7796407999200411,
52114.6,54.19999999999709,-0.12,-0.29,0.87,0.00,0.02,0.02,22.34694610008267,0.5254485518078162,0.7572595767537477,
52114.7,54.299999999995634,-0.12,-0.29,0.87,-0.00,-0.00,0.01,21.3239278745732,0.562560403737199,0.7617920417670143,
52114.8,54.400000000001455,-0.13,-0.29,0.87,0.00,0.03,0.01,21.136735793400078,0.5188401167040539,0.8742959460593672,
52114.9,54.5,-0.13,-0.29,0.87,0.00,0.00,0.01,21.589539133571147,0.5774220057050475,0.731247405693183,
52115.0,54.599999999998545,-0.13,-0.29,0.87,-0.00,0.02,0.01,22.447503201915353,0.4986187683977331,0.7529095166019004,
52115.1,54.69999999999709,-0.13,-0.29,0.88,-0.00,0.00,0.02,22.467779151487136,0.44487704833292613,0.7902406413846331,
52115.2,54.799999999995634,-0.13,-0.30,0.87,0.00,0.01,0.00,22.27236179663037,0.5225255936328161,0.7418252471540372,
52115.3,54.900000000001455,-0.14,-0.29,0.88,0.00,0.01,0.00,21.730292220768685,0.444135005964,0.7700270131130064,
52115.4,55.0,-0.13,-0.30,0.88,-0.01,0.01,0.01,21.627741444727878,0.5804355894472294,0.7448834470263511,
52115.5,55.099999999998545,-0.13,-0.29,0.87,-0.00,0.00,0.03,23.309609606340473,0.5273690250818167,0.8393256085619649,
52115.6,55.19999999999709,-0.13,-0.28,0.87,-0.00,0.01,0.02,21.705888601943943,0.5703393101435064,0.7282485486224192,
52115.7,55.299999999995634,-0.13,-0.30,0.87,-0.00,0.02,0.01,22.700101321359778,0.5016418871188845,0.7190686072421673,
52115.8,55.400000000001455,-0.14,-0.30,0.87,-0.01,-0.01,0.02,23.669283892843062,0.5622368032202819,0.7953100105551718,
52115.9,55.5,-0.12,-0.29,0.88,-0.01,0.04,0.02,21.730395762617853,0.4784394295079783,0.7693706662277394,
52116.0,55.599999999998545,-0.14,-0.29,0.87,-0.01,0.01,0.02,22.66900086020555,0.5332628234976868,0.7721722255192938,
52116.1,55.69999999999709,-0.13,-0.29,0.87,-0.01,-0.00,0.02,21.781499030140235,0.5219953481352714,0.7471182381002779,
52116.2,55.799999999995634,-0.12,-0.29,0.87,-0.01,0.01,0.03,21.229062626503318,0.5016418871188845,0.7814743255844792,
52116.3,55.900000000001455,-0.13,-0.29,0.87,-0.02,-0.01,0.02,21.147657080631888,0.42544035791938606,0.8113881574604915,
52116.4,56.0,-0.13,-0.30,0.87,-0.01,0.01,0.02,21.880233088337977,0.478946646202292,0.7867972410560858,
52116.5,56.099999999998545,-0.13,-0.30,0.87,-0.00,0.02,0.02,22.617935361124367,0.6086733356930358,0.7589915081044726,
52116.6,56.19999999999709,-0.12,-0.30,0.87,0.00,0.02,0.01,23.19534004924265,0.4912890750974872,0.7818300753434374,
52116.7,56.299999999995634,-0.13,-0.30,0.87,-0.00,0.01,0.01,22.271484009827454,0.49364961716692884,0.8177917574147828,
52116.8,56.400000000001455,-0.13,-0.30,0.87,0.00,0.00,0.01,21.70734898600011,0.5390166487241698,0.7420605795359602,
52116.9,56.5,-0.13,-0.29,0.87,0.01,0.01,0.01,21.972785440175763,0.4553906453693535,0.7617599636814306,
52117.0,56.599999999998545,-0.13,-0.29,0.88,-0.00,0.00,0.01,23.069633720542683,0.5679794401262689,0.8398907260843204,
52117.1,56.69999999999709,-0.13,-0.30,0.87,0.00,0.01,0.00,21.432902276639997,0.5014373473908796,0.7929806977733594,
52117.2,56.799999999995634,-0.13,-0.30,0.88,0.00,0.02,-0.00,21.898483965790874,0.5367748694834562,0.758195977729332,
52117.3,56.900000000001455,-0.12,-0.29,0.87,0.00,0.01,0.01,22.828493160960054,0.5722795768083325,0.8130323457475954,
52117.4,57.0,-0.14,-0.29,0.87,-0.00,-0.01,0.01,22.772250657324143,0.52269362818847,0.7417301123064353,
52117.5,57.099999999998545,-0.13,-0.29,0.88,0.01,0.03,0.00,21.86363876393863,0.5327842946395123,0.7451144343320151,
52117.6,57.19999999999709,-0.12,-0.29,0.88,-0.00,-0.01,0.02,21.88619199404044,0.49756371081836287,0.7408306965425832,
52117.7,57.299999999995634,-0.13,-0.29,0.88,0.00,0.02,0.01,23.19939869910425,0.5395702435745438,0.770315483062699,
52117.8,57.400000000001455,-0.13,-0.29,0.87,-0.00,0.00,0.01,22.738610335726325,0.5229892928654873,0.789037728235968,
52117.9,57.5,-0.14,-0.30,0.87,0.00,0.01,0.01,22.102692143718603,0.47152835653205266,0.7659463050680342,
52118.0,57.599999999998545,-0.13,-0.29,0.87,-0.00,-0.01,0.02,22.514251042395347,0.5103751152244798,0.7541238476830563,
52118.1,57.69999999999709,-0.13,-0.30,0.87,-0.01,0.01,0.01,22.514251042395347,0.5103751152244798,0.7541238476830563,
52118.2,57.799999999995634,-0.13,-0.29,0.88,0.00,0.02,0.01,22.7189392358006,0.4511233563939099,0.7636670259359036,
52118.3,57.900000000001455,-0.13,-0.29,0.88,-0.00,-0.00,0.01,22.640947418339188,0.5222242114893716,0.7922188289804531,
52118.4,58.0,-0.14,-0.29,0.87,-0.00,0.01,0.01,21.829583138484345,0.5207031071701123,0.7661553035393346,
52118.5,58.099999999998545,-0.14,-0.31,0.88,-0.06,-0.02,0.03,22.110771130831235,0.5719309280943918,0.7571520319748739,
52118.6,58.19999999999709,-0.14,-0.30,0.88,-0.10,0.03,0.07,21.91680177398153,0.49092157172184736,0.7696267131537533,
52118.7,58.299999999995634,-0.12,-0.32,0.92,-0.21,0.16,0.14,23.671474394299988,0.5738909718561285,0.7835001103906304,
52118.8,58.400000000001455,-0.17,-0.36,0.96,-0.13,0.08,0.38,24.46412066680509,0.5211949918127161,0.7654711920052366,
52118.9,58.5,-0.00,-0.38,1.11,0.29,-0.35,0.19,24.127490545019388,0.5294140014151403,0.7021668002610391,
52119.0,58.599999999998545,-0.13,-0.33,1.03,0.47,-0.73,0.16,22.798135888708092,0.47183695502408124,0.7351542451704346,
52119.1,58.69999999999709,-0.03,-0.23,1.02,0.92,-1.15,0.38,21.750204596738854,0.607295346378971,0.70465988443317,
52119.2,58.799999999995634,0.01,-0.07,0.91,1.03,-0.99,0.54,18.40975285005206,0.32414044400845266,0.5272066407742959,
52119.3,58.900000000001455,0.14,-0.01,0.81,0.82,-1.58,0.26,16.398140138442532,0.3756967949594449,0.2864423506580849,
52119.4,59.0,0.25,0.09,0.72,0.54,-0.81,0.54,15.013427323566063,3.422129445328115,0.12300073973548391,
52119.5,59.099999999998545,0.28,0.11,0.68,0.09,0.22,0.67,13.753381402404283,3.7922973051022915,0.223926963952829,
52119.6,59.19999999999709,0.29,0.05,0.76,-0.17,-0.11,0.37,15.664593834504617,3.3842403186075307,0.06647138649845072,
52119.7,59.299999999995634,0.15,-0.05,0.71,-0.17,0.40,0.51,16.412559215430115,2.8077944893389652,0.08005108961957072,
52119.8,59.400000000001455,0.33,-0.11,0.77,-0.34,0.03,0.12,17.888132937788672,1.7830668225109878,0.13306508459551764,
52119.9,59.5,0.28,-0.20,0.74,-0.35,0.40,-0.06,19.307565874547727,1.8947350615065393,0.15026411803946232,
52120.0,59.599999999998545,0.29,-0.22,0.80,-0.25,0.47,0.04,21.829324313867343,1.3822725240386329,0.21429771490557759,
52120.1,59.69999999999709,0.27,-0.17,0.80,-0.14,0.74,0.01,22.141284967228078,0.8327165763682786,0.2316238426419254,
52120.2,59.799999999995634,0.15,-0.23,0.90,0.01,0.06,-0.00,25.944459909583777,0.706796726981908,0.2777687563363498,
52120.3,59.900000000001455,0.30,-0.09,0.89,0.87,-0.59,-0.09,24.50449142504288,0.5151972818194933,0.27254572463522997,
52120.4,60.0,0.19,-0.09,0.84,1.19,0.17,-0.26,23.224601180644633,0.07442369028558363,0.19818332575994355,
52120.5,60.099999999998545,0.14,0.08,0.97,1.49,1.48,-0.33,20.640157460639685,5.556696623534144,0.2649373166193881,
52120.6,60.19999999999709,-0.10,0.26,1.13,1.83,2.69,-0.36,23.62707133776846,5.416432333177161,0.5245835844983627,
52120.7,60.299999999995634,-0.63,0.03,1.50,2.99,2.91,-0.40,33.45534635899022,5.4590708322259,0.7512666340437014,
52120.8,60.400000000001455,0.06,0.53,0.90,0.71,-0.56,-0.44,37.2003158588741,5.3541527995895875,0.7920137848964611,
52120.9,60.5,-0.18,0.56,0.73,-0.12,-0.22,-0.02,37.9888839004254,5.341238591601437,0.8122971899315138,
52121.0,60.599999999998545,-0.19,0.54,0.75,-0.49,0.06,0.17,38.35023467985561,5.388242640519988,0.8211884946989327,
52121.1,60.69999999999709,-0.13,0.52,0.80,-0.51,-0.45,0.20,36.80869054992313,5.367029173831631,0.8066011965758957,
52121.2,60.799999999995634,-0.13,0.46,0.83,-0.87,0.03,0.28,35.562871087694816,5.376300243240522,0.794769023678012,
52121.3,60.900000000001455,-0.13,0.36,0.85,-1.00,-0.86,0.33,31.6991119749434,5.383968638382905,0.7993394405177053,
52121.4,61.0,0.06,0.27,0.84,-0.96,-1.75,0.35,27.244437964472674,5.359847106399378,0.7066793484323949,
52121.5,61.099999999998545,0.17,0.15,0.86,-0.88,-0.68,0.33,22.69687423413189,5.3085881216821695,0.5143667147700912,
52121.6,61.19999999999709,0.24,0.10,0.68,-0.82,-1.28,0.39,20.975726447491635,5.340676878435177,0.3519447681200512,
52121.7,61.299999999995634,0.30,-0.00,0.89,-0.76,0.43,0.11,20.82133761313139,4.988686353736106,0.23273050954106206,
52121.8,61.400000000001455,0.14,-0.18,0.90,-0.17,0.76,0.01,21.400471957412528,5.677157084618109,0.12253909025918952,
52121.9,61.5,0.15,-0.11,0.99,0.39,0.14,0.09,22.142574376074702,6.217607830616806,0.30808703130604453,
52122.0,61.599999999998545,0.18,-0.02,0.85,0.79,0.32,-0.15,19.926999272344045,5.866029495959564,0.39140495723710517,
52122.1,61.69999999999709,0.14,0.09,0.79,0.52,-0.33,-0.18,19.017723312741722,5.67116025288462,0.4456835644840023,
52122.2,61.799999999995634,0.14,0.17,0.71,0.30,-0.36,-0.34,17.62488297833492,5.524893740453683,0.5273986626230093,
52122.3,61.900000000001455,0.13,0.21,0.72,0.18,0.17,-0.38,17.488424743240884,5.267194597271393,0.53665120640078,
52122.4,62.0,0.13,0.28,0.79,-0.23,0.19,-0.27,18.10822465069395,5.249167527929856,0.641342416496815,
52122.5,62.099999999998545,0.13,0.26,0.87,-0.35,0.33,-0.29,16.159334763535288,5.425811378806744,0.5941525229346161,
52122.6,62.19999999999709,0.08,0.21,0.83,-0.48,0.56,-0.29,18.263542920255095,5.504581356716833,0.6774911153195787,
52122.7,62.299999999995634,0.04,0.07,0.94,-0.46,0.51,-0.35,17.412667802493676,5.6663568042164965,0.6744659425918089,
52122.8,62.400000000001455,-0.02,0.02,0.92,-0.65,0.78,-0.43,18.023631709508493,5.88589071565844,0.6607714335779356,
52122.9,62.5,-0.05,-0.09,1.04,-0.89,0.27,-0.37,20.737685502485565,6.169144821969182,0.7222430396599897,
52123.0,62.599999999998545,-0.06,-0.13,1.02,-0.71,0.16,-0.33,21.117381466460277,6.210611635615561,0.7290146999853861,
52123.1,62.69999999999709,-0.13,-0.24,0.95,-0.46,0.20,-0.60,20.982454575192104,0.1306285457928643,0.7585349516147155,
52123.2,62.799999999995634,-0.19,-0.27,0.89,-0.34,0.50,-0.17,21.426128908414604,0.3443790797780915,0.7367078253531784,
52123.3,62.900000000001455,-0.13,-0.29,1.20,-0.11,0.07,-0.13,23.361519642352036,0.3722747182083486,0.7823114424057638,
52123.4,63.0,-0.21,-0.21,0.76,0.06,0.20,0.03,22.989271410812478,0.3995658198592752,0.7863739323421327,
52123.5,63.099999999998545,-0.16,-0.32,0.92,-0.18,-0.10,-0.15,23.83312191048416,0.3699169180332654,0.8268338096168082,
52123.6,63.19999999999709,-0.16,-0.28,0.87,0.10,0.26,-0.19,23.7695288131675,0.41333040453932784,0.7488821775629011,
52123.7,63.299999999995634,-0.23,-0.29,0.87,0.02,0.12,-0.09,24.559242659332963,0.3945384030005673,0.8384887676028843,
52123.8,63.400000000001455,-0.18,-0.28,0.88,-0.05,-0.04,0.00,24.47917278014108,0.4274476132273143,0.836094691029017,
52123.9,63.5,-0.17,-0.30,0.87,-0.02,-0.03,-0.03,25.01972022225668,0.4053343294041505,0.7916872837524185,
52124.0,63.599999999998545,-0.17,-0.28,0.86,0.03,0.02,-0.03,24.648559795655405,0.5045461330339214,0.8346476674314856,
52124.1,63.69999999999709,-0.17,-0.29,0.87,0.03,-0.06,-0.00,22.7355250654125,0.4022215656621031,0.7644286504697904,
52124.2,63.799999999995634,-0.18,-0.29,0.89,0.02,-0.01,-0.00,24.209570421632847,0.49566146104645675,0.797519313077889,
52124.3,63.900000000001455,-0.17,-0.29,0.87,0.02,0.04,0.04,23.870056556279877,0.4408299930107567,0.8075891131982781,
52124.4,64.0,-0.18,-0.28,0.87,0.03,0.01,0.02,24.079597172710344,0.46579295298757484,0.7650357737485642,
52124.5,64.09999999999854,-0.18,-0.28,0.87,0.03,0.02,0.00,24.271423526443602,0.4600375163808062,0.7959753889617782,
52124.6,64.19999999999709,-0.18,-0.27,0.87,0.02,0.03,0.01,25.018613071071705,0.3905775443024329,0.8286154993289755,
52124.7,64.29999999999563,-0.18,-0.27,0.86,0.01,0.01,0.01,23.949354897366234,0.5107252606636746,0.8301606339742388,
52124.8,64.40000000000146,-0.18,-0.27,0.87,0.00,0.01,0.01,23.23334887613062,0.4606762509167718,0.7931871771485152,
52124.9,64.5,-0.18,-0.27,0.87,0.01,0.01,0.01,23.982047452208914,0.42635332022202976,0.855964631426929,
52125.0,64.59999999999854,-0.18,-0.27,0.86,0.00,0.00,0.00,24.551832925466073,0.43345129378185526,0.8272055933320196,
52125.1,64.69999999999709,-0.19,-0.27,0.87,-0.00,0.01,0.01,23.535915108616447,0.394525150469808,0.8290679176286561,
52125.2,64.79999999999563,-0.19,-0.27,0.87,0.00,0.02,0.00,23.234405522844778,0.34588516294183,0.7588206233020498,
52125.3,64.90000000000146,-0.18,-0.26,0.88,-0.01,-0.02,0.01,23.362767387447917,0.4306646508008857,0.8550612841262885,
52125.4,65.0,-0.19,-0.27,0.87,-0.01,0.01,0.01,25.095916002409634,0.42586667539445416,0.7663656144265224,
52125.5,65.09999999999854,-0.18,-0.27,0.88,-0.00,-0.01,0.01,23.827960466645063,0.4176909646896614,0.8024016714720301,
52125.6,65.19999999999709,-0.18,-0.27,0.88,-0.00,0.01,0.01,23.431655938068058,0.48244331764860876,0.8816327250319959,
52125.7,65.29999999999563,-0.18,-0.27,0.86,-0.01,-0.01,0.01,24.267074401336473,0.3958584026137677,0.7934900833337728,
52125.8,65.40000000000146,-0.18,-0.27,0.87,-0.00,0.01,0.01,24.083276355180583,0.4321679961721839,0.8120264183713183,
52125.9,65.5,-0.18,-0.27,0.87,-0.00,-0.00,0.01,23.951079307622024,0.3817836515641242,0.8159914171383998,
52126.0,65.59999999999854,-0.18,-0.27,0.87,-0.01,-0.00,0.01,24.31941405544139,0.4057592141432788,0.8434352088966496,
52126.1,65.69999999999709,-0.19,-0.27,0.87,0.00,0.02,0.01,24.09704546204783,0.4053343294041505,0.8312652628334662,
52126.2,65.79999999999563,-0.18,-0.27,0.88,-0.01,-0.01,0.01,23.967813834390483,0.41588035496781706,0.8080263273109359,
52126.3,65.90000000000146,-0.18,-0.27,0.87,-0.00,0.02,0.01,23.9732371614682,0.45677823717186417,0.8639035341261998,
52126.4,66.0,-0.18,-0.27,0.88,-0.00,0.00,0.01,22.33925692586931,0.41333040453932784,0.8101781454052346,
52126.5,66.09999999999854,-0.18,-0.27,0.87,0.00,0.02,0.01,24.553325640328236,0.3970625524770406,0.7997993789790544,
52126.6,66.19999999999709,-0.18,-0.27,0.87,-0.00,0.00,0.02,24.021569474120547,0.47842609213391546,0.8379578575576444,
52126.7,66.29999999999563,-0.18,-0.27,0.87,-0.00,-0.00,0.01,24.1455689516731,0.4230660489488714,0.7926054262574503,
52126.8,66.40000000000146,-0.18,-0.27,0.88,-0.00,0.01,0.01,22.94686253063804,0.4652109219534128,0.8450320730492838,
52126.9,66.5,-0.18,-0.27,0.87,0.00,0.00,0.00,23.64237297734726,0.38550123873365194,0.8796577842586562,
52127.0,66.59999999999854,-0.19,-0.27,0.87,-0.00,0.00,0.02,23.2284007198085,0.4493628664134095,0.8350223102491903,
52127.1,66.69999999999709,-0.19,-0.27,0.87,-0.00,-0.00,0.01,24.92832525461749,0.44013709024353426,0.8109987462618335,
52127.2,66.79999999999563,-0.18,-0.27,0.87,-0.00,0.01,0.01,23.54916983674796,0.38712810080435467,0.8484193880150659,
52127.3,66.90000000000146,-0.19,-0.27,0.87,-0.00,0.00,0.01,23.402166566367313,0.413860155695902,0.8121074691728053,
52127.4,67.0,-0.18,-0.27,0.88,-0.00,0.01,0.01,23.62122774116536,0.45647927300371416,0.8323721862739236,
52127.5,67.09999999999854,-0.18,-0.27,0.87,-0.00,0.01,0.02,24.32741663226903,0.4652109219534128,0.7831914161122383,
52127.6,67.19999999999709,-0.18,-0.27,0.87,-0.01,0.00,0.02,23.158113049210204,0.44434294582416917,0.8187564120231273,
52127.7,67.29999999999563,-0.18,-0.27,0.87,0.00,0.03,0.02,23.67480094953282,0.38369107972134836,0.7955384455318751,
52127.8,67.40000000000146,-0.19,-0.27,0.86,0.01,0.01,0.02,23.641592585949027,0.4260242169459435,0.8546664542640395,
52127.9,67.5,-0.19,-0.27,0.87,-0.01,0.01,0.02,23.294413493367887,0.3961611069694367,0.8083071544679777,
52128.0,67.59999999999854,-0.19,-0.27,0.88,-0.00,0.02,0.01,24.601648318761082,0.3621111962609385,0.8129589087985678,
52128.1,67.69999999999709,-0.19,-0.27,0.87,-0.00,0.00,0.01,23.48388809375483,0.3836809696223708,0.8071803063264817,
52128.2,67.79999999999563,-0.19,-0.27,0.87,-0.01,0.01,0.02,24.807365841620506,0.44434875925189526,0.8301032325327092,
52128.3,67.90000000000146,-0.18,-0.27,0.88,-0.00,-0.00,0.02,23.7168062774059,0.33731860813504616,0.7907691473271097,
52128.4,68.0,-0.19,-0.28,0.87,0.01,0.02,0.00,23.932893682127116,0.3403395778764733,0.8864272133625015,
52128.5,68.09999999999854,-0.19,-0.27,0.87,0.00,0.01,0.01,24.321617956048893,0.3068540772188156,0.7729927652655653,
52128.6,68.19999999999709,-0.19,-0.27,0.88,0.00,-0.00,0.01,24.3850507483581,0.4320582202967804,0.8292706257559221,
52128.7,68.29999999999563,-0.18,-0.26,0.87,-0.00,-0.01,0.01,24.18717842163488,0.46514461387055467,0.8346594187131727,
52128.8,68.40000000000146,-0.19,-0.27,0.86,0.00,0.00,0.00,23.725450469906786,0.34658445436765284,0.8105038887211217,
52128.9,68.5,-0.19,-0.27,0.87,0.00,0.01,0.00,23.596317509306406,0.4002608065433308,0.8405499102955662,
52129.0,68.59999999999854,-0.19,-0.27,0.88,-0.00,-0.00,0.01,23.535915108616447,0.394525150469808,0.8290679176286561,
52129.1,68.69999999999709,-0.19,-0.27,0.87,-0.00,0.01,0.01,24.195582241392742,0.4348500098217892,0.8399806679317102,
52129.2,68.79999999999563,-0.18,-0.27,0.88,-0.00,-0.01,0.01,22.9085093360524,0.4329639014543419,0.7933157991387112,
52129.3,68.90000000000146,-0.19,-0.27,0.87,-0.00,0.01,0.01,24.38255523935094,0.355488617572324,0.8418957603520703,
52129.4,69.0,-0.19,-0.27,0.87,-0.00,0.00,0.01,23.539093015662264,0.40219471337653245,0.8094231381808451,
52129.5,69.09999999999854,-0.19,-0.27,0.87,-0.00,0.01,0.01,25.440324290385924,0.4241944079037666,0.8262145537324147,
52129.6,69.19999999999709,-0.18,-0.27,0.87,-0.00,0.01,0.00,24.291090959444368,0.3776312918600039,0.8007896979799185,
52129.7,69.29999999999563,-0.19,-0.27,0.87,0.00,-0.00,0.02,23.949331932227256,0.4230633776287651,0.814201572883947,
52129.8,69.40000000000146,-0.19,-0.27,0.87,0.00,0.00,0.01,24.668502183959202,0.38917824644802584,0.7676551149991987,
52129.9,69.5,-0.18,-0.27,0.88,-0.00,0.01,0.01,23.8713573137348,0.42301121654217155,0.8163007086029618,
52130.0,69.59999999999854,-0.19,-0.27,0.86,-0.01,-0.00,0.01,22.520965787461247,0.3995658198592752,0.8074324720115087,
52130.1,69.69999999999709,-0.18,-0.27,0.87,0.00,0.02,0.01,24.62139110610934,0.4286819554197412,0.8772327792986738,
52130.2,69.79999999999563,-0.19,-0.27,0.87,-0.01,-0.00,0.02,23.95489302835644,0.3913066633554028,0.8427436314555221,
52130.3,69.90000000000146,-0.18,-0.27,0.87,-0.00,0.00,0.01,23.952037491620622,0.38917824644802584,0.7969425895460089,
52130.4,70.0,-0.19,-0.28,0.88,-0.03,0.03,0.01,24.674541535761108,0.43928038616529663,0.8168633465950355,
52130.5,70.09999999999854,-0.19,-0.26,0.86,-0.12,0.10,0.08,24.81078394569587,0.4263418876510165,0.7764588901168984,
52130.6,70.19999999999709,-0.21,-0.28,0.85,-0.15,0.08,0.06,26.02545100473765,0.5219720793840629,0.8112993460540726,
52130.7,70.29999999999563,-0.22,-0.30,0.84,-0.17,0.07,0.06,25.65697371086466,0.3967287023020525,0.8143199845338004,
52130.8,70.40000000000146,-0.21,-0.31,0.86,-0.13,-0.05,0.00,26.47512417345762,0.4406331634455608,0.7923576917431192,
52130.9,70.5,-0.24,-0.34,0.85,-0.04,-0.06,-0.05,26.582569477008803,0.5027782547733565,0.8651245958611884,
52131.0,70.59999999999854,-0.23,-0.32,0.94,-0.13,-0.13,0.07,26.253854955034697,0.5738858942964038,0.8684632479395303,
52131.1,70.69999999999709,-0.29,-0.51,1.16,0.21,-0.31,0.31,27.089571794327053,0.514657703659696,0.8400635584042981,
52131.2,70.79999999999563,-0.11,-0.29,1.08,1.18,-0.30,0.47,25.930202467393116,0.3819146852045539,0.7922153997469712,
52131.3,70.90000000000146,-0.10,-0.19,1.05,1.47,-0.47,0.46,24.563458632692587,0.15105885208000983,0.6476129724191677,
52131.4,71.0,-0.22,-0.00,0.81,1.42,-0.50,0.40,21.96881426021896,6.233949768061537,0.6801701471336699,
52131.5,71.09999999999854,-0.09,0.20,0.73,0.76,-1.62,0.55,18.934143761997795,5.897980861274276,0.5987851160366144,
52131.6,71.19999999999709,0.12,0.26,0.72,0.27,-1.12,0.72,15.817483997146955,5.733332124503002,0.42658275497167775,
52131.7,71.29999999999563,0.13,0.20,0.68,0.05,-0.12,0.80,15.750876166105808,5.232758015055814,0.46760863343048065,
52131.8,71.40000000000146,0.08,0.15,0.59,-0.44,-0.19,0.58,14.767227227885401,5.27412504830121,0.3503810088616093,
52131.9,71.5,0.26,0.02,0.72,-0.77,-1.19,0.50,14.508156326701199,4.969712695355778,0.12218137804094346,
52132.0,71.59999999999854,0.43,-0.07,0.80,-0.57,-0.28,0.42,15.784663442721863,3.3184948584586578,0.2324867909965653,
52132.1,71.69999999999709,0.46,-0.16,0.88,-0.28,0.58,0.10,16.675787837460632,2.6613553148082048,0.17877957370214972,
52132.2,71.79999999999563,0.27,-0.17,0.79,0.08,0.98,-0.07,20.093177946755958,1.2578950989145121,0.01778564891351907,
52132.3,71.90000000000146,0.17,-0.12,0.74,0.27,-0.08,-0.16,20.360650775454108,0.20232162837830373,0.15707253004267405,
52132.4,72.0,0.27,-0.17,0.88,1.22,-0.59,-0.10,21.11639647288334,5.558116529321831,0.050006135703615166,
52132.5,72.09999999999854,0.21,0.06,0.85,1.20,0.65,-0.26,20.50431661870251,4.820447679906197,0.2513540438865188,
52132.6,72.19999999999709,0.32,0.14,1.00,1.02,0.13,-0.56,20.450127138969087,4.750311170785911,0.36948753086995717,
52132.7,72.29999999999563,0.30,0.29,0.86,1.10,2.18,-0.84,21.439286368720392,4.807340686727446,0.5954087024580197,
52132.8,72.40000000000146,0.09,0.44,0.85,0.74,0.98,-0.71,27.3136321275659,5.188764048121676,0.7502728458560146,
52132.9,72.5,0.07,0.72,0.57,0.29,-0.46,-0.24,33.54839787530844,5.234134212211375,0.8117093109905597,
52133.0,72.59999999999854,-0.11,0.58,0.72,0.03,0.38,0.16,33.34731623384407,5.264237381163982,0.790900981887131,
52133.1,72.69999999999709,-0.08,0.52,0.76,-0.18,-0.05,0.03,34.240471667312065,5.283901324696562,0.7788371724454135,
52133.2,72.79999999999563,-0.04,0.49,0.79,-0.35,-0.23,0.07,33.851087131730345,5.24168409407801,0.7709355425045497,
52133.3,72.90000000000146,-0.02,0.46,0.82,-0.48,0.01,0.16,30.692692941480388,5.214471109488916,0.7669348001225953,
52133.4,73.0,-0.02,0.45,0.87,-0.65,-0.61,0.27,29.826741357379287,5.273710522225008,0.8009572315651092,
52133.5,73.09999999999854,0.07,0.36,0.83,-0.67,-1.16,0.43,27.152640755550827,5.283258008665253,0.661222942222647,
52133.6,73.19999999999709,0.23,0.22,0.75,-0.61,-0.91,0.45,22.700079295015687,4.964124297447339,0.5676461383432605,
52133.7,73.29999999999563,0.29,0.16,0.90,-0.58,-0.40,0.46,20.98729139264998,4.736816930077228,0.5778302057211784,
52133.8,73.40000000000146,0.41,0.13,1.02,-0.57,0.37,-0.09,19.640259672417777,4.7325746636089425,0.3880473371754911,
52133.9,73.5,0.38,0.05,0.91,-0.06,-0.57,-0.11,18.738465785650646,4.9460380790260015,0.2658854758240776,
52134.0,73.59999999999854,0.40,0.12,0.78,0.48,-0.11,-0.32,18.519106349929523,4.229563828576962,0.37384389472768537,
52134.1,73.69999999999709,0.28,0.18,0.71,0.33,-0.09,-0.33,16.298542879656452,4.365096536590758,0.43944275368281766,
52134.2,73.79999999999563,0.32,0.18,0.69,0.40,-0.17,-0.33,16.99748804970899,4.509179532552967,0.542158036897331,
52134.3,73.90000000000146,0.29,0.27,0.64,0.16,0.49,-0.43,16.10251533146297,4.430617113111337,0.7252550091811073,
52134.4,74.0,0.26,0.33,0.71,-0.40,0.72,-0.37,16.162567865286753,4.508492018550906,0.7622615057894799,
52134.5,74.09999999999854,0.25,0.31,0.78,-0.50,0.96,-0.50,15.554770972277284,4.738357167596246,0.7660147901433563,
52134.6,74.19999999999709,0.11,0.25,0.84,-0.77,0.79,-0.26,15.185815750232189,4.975935354206037,0.6142430046019185,
52134.7,74.29999999999563,0.20,0.15,0.89,-0.94,0.65,-0.36,15.49488302634131,5.343393743774967,0.5670219880317908,
52134.8,74.40000000000146,-0.07,-0.06,0.95,-1.19,1.12,-0.59,16.764071701111277,5.910402966358358,0.6285639714142548,
52134.9,74.5,-0.08,-0.17,1.05,-0.85,0.13,-0.43,18.03543456643061,6.17702850566695,0.6589007415679207,
52135.0,74.59999999999854,-0.18,-0.25,0.98,-0.71,0.82,-0.22,21.25912509958959,0.1458496031909141,0.7385475111140438,
52135.1,74.69999999999709,-0.11,-0.26,0.93,-0.47,0.31,-0.17,22.87040008395131,0.22679884805388587,0.7275336871576478,
52135.2,74.79999999999563,-0.23,-0.31,1.01,-0.25,0.03,-0.30,23.13823891310659,0.3121373524018005,0.7706943781892925,
52135.3,74.90000000000146,-0.08,-0.25,0.76,0.21,0.51,-0.21,24.86196693747299,0.4329639014543419,0.7164162249039752,
52135.4,75.0,-0.12,-0.23,0.72,0.03,0.52,-0.34,24.546794088027056,0.41588886463565045,0.7625039936783702,
52135.5,75.09999999999854,-0.34,-0.30,0.84,0.03,-0.06,-0.06,26.864469099537402,0.5025221100214654,0.7909653446188184,
52135.6,75.19999999999709,-0.17,-0.30,0.86,-0.01,-0.12,0.21,25.604899921694674,0.45316681126448155,0.8231046368198094,
52135.7,75.29999999999563,-0.22,-0.29,0.86,-0.02,0.02,0.05,25.850326883813285,0.47038073223294924,0.8407339284297219,
52135.8,75.40000000000146,-0.20,-0.31,0.86,-0.00,-0.15,0.00,26.12364063449044,0.4163261351459313,0.8916016063833014,
52135.9,75.5,-0.17,-0.29,0.87,0.04,0.06,-0.01,25.074245751368075,0.5008554712897029,0.8306483843942364,
52136.0,75.59999999999854,-0.23,-0.29,0.85,0.05,0.04,-0.00,26.75269892926693,0.48521013626729576,0.7941884574080601,
52136.1,75.69999999999709,-0.19,-0.29,0.87,0.02,-0.02,0.03,24.083025142203375,0.49131350430559406,0.8307340647627235,
52136.2,75.79999999999563,-0.20,-0.29,0.86,-0.00,0.04,0.03,24.47545096622328,0.3999098393059411,0.7753372672495137,
52136.3,75.90000000000146,-0.20,-0.29,0.86,0.01,0.03,0.03,25.712045815142755,0.3905775443024329,0.7996613553310767,
52136.4,76.0,-0.21,-0.28,0.86,-0.01,-0.02,0.02,25.397539250880193,0.38917824644802584,0.7403085100811799,
52136.5,76.09999999999854,-0.20,-0.29,0.86,-0.01,0.01,0.02,25.721069184619832,0.4286819554197412,0.8272846734779321,
52136.6,76.19999999999709,-0.21,-0.28,0.86,0.02,0.02,0.01,25.837285074093987,0.45316681126448155,0.8134553107490518,
52136.7,76.29999999999563,-0.20,-0.29,0.85,0.01,-0.01,-0.02,25.743482670376984,0.4214525546718316,0.8227988754429427,
52136.8,76.40000000000146,-0.20,-0.29,0.86,-0.01,0.01,0.01,25.250025742561135,0.4336273336381179,0.8121769123705056,
52136.9,76.5,-0.20,-0.29,0.87,-0.02,-0.01,0.03,26.183410778582687,0.3905775443024329,0.781310138634376,
52137.0,76.59999999999854,-0.22,-0.29,0.86,0.00,0.03,0.01,24.297792080763227,0.39388870921892327,0.8282133236284921,
52137.1,76.69999999999709,-0.20,-0.28,0.86,-0.00,-0.03,0.01,25.166678366443197,0.4195976532599137,0.8248390515272607,
52137.2,76.79999999999563,-0.20,-0.29,0.87,0.01,-0.00,-0.00,25.514393976733995,0.4268056985958976,0.8155124072372223,
52137.3,76.90000000000146,-0.20,-0.29,0.87,0.01,-0.00,0.00,25.09547568786055,0.43937091254825555,0.8030055670036684,
52137.4,77.0,-0.20,-0.29,0.87,0.01,-0.00,0.02,25.46532151770325,0.4419862313380347,0.8792487006158767,
52137.5,77.09999999999854,-0.20,-0.28,0.86,-0.00,0.00,0.01,25.52291911204516,0.42811350995532166,0.8039244173425838,
52137.6,77.19999999999709,-0.20,-0.29,0.87,-0.01,-0.01,0.01,25.518861651727335,0.3864779165079786,0.8380454594888155,
52137.7,77.29999999999563,-0.20,-0.29,0.86,-0.01,0.02,0.02,25.154898131377912,0.38917824644802584,0.7491574064778611,
52137.8,77.40000000000146,-0.21,-0.29,0.87,-0.00,-0.01,0.02,25.031608018663125,0.40793851833071376,0.7837029294900119,
52137.9,77.5,-0.20,-0.29,0.86,-0.01,-0.01,0.01,24.85894004176365,0.4217938924020561,0.788688088262402,
52138.0,77.59999999999854,-0.20,-0.29,0.86,-0.01,0.01,0.02,26.463198975180607,0.38090541938966804,0.7801636749657713,
52138.1,77.69999999999709,-0.21,-0.29,0.86,-0.00,-0.01,0.01,23.95172436381147,0.3793226910193286,0.8044907136451137,
52138.2,77.79999999999563,-0.20,-0.29,0.87,-0.02,0.00,0.01,25.473713902766512,0.38367499706532743,0.8274217714562198,
52138.3,77.90000000000146,-0.20,-0.29,0.86,-0.00,-0.02,0.00,24.334150899507467,0.3575231832193105,0.7670288647106538,
52138.4,78.0,-0.19,-0.29,0.87,-0.01,-0.03,0.02,26.358387659339105,0.4168362572231593,0.8060150149218847,
52138.5,78.09999999999854,-0.21,-0.29,0.86,-0.01,0.04,0.02,24.86342293410141,0.41172299899257,0.7803284361050032,
52138.6,78.19999999999709,-0.19,-0.29,0.86,-0.00,-0.01,0.02,25.294817651052558,0.355488617572324,0.8023708323527952,
52138.7,78.29999999999563,-0.20,-0.29,0.87,0.01,0.02,0.01,24.147469846756202,0.4179377473666357,0.8236141272764139,
52138.8,78.40000000000146,-0.20,-0.29,0.87,0.01,0.01,0.01,25.68740158131998,0.43067929872878263,0.8090010401496264,
52138.9,78.5,-0.21,-0.29,0.87,0.01,0.01,0.01,25.620688905648105,0.43613385239145963,0.7994615242929183,
52139.0,78.59999999999854,-0.20,-0.29,0.87,0.00,0.02,0.01,24.761825457748465,0.4480474654714027,0.8006601443058449,
52139.1,78.69999999999709,-0.21,-0.29,0.86,0.00,-0.00,0.01,25.239984152134486,0.4480474654714027,0.7813199888830339,
52139.2,78.79999999999563,-0.19,-0.29,0.87,0.00,0.00,0.00,24.147469846756202,0.4179377473666357,0.8236141272764139,
52139.3,78.90000000000146,-0.20,-0.29,0.87,0.00,0.01,0.01,25.668498203050373,0.39591766822807106,0.8012708361371014,
52139.4,79.0,-0.20,-0.29,0.87,0.00,0.00,0.01,24.9068705380664,0.39566958391794294,0.7798076742216125,
52139.5,79.09999999999854,-0.20,-0.29,0.86,-0.00,0.01,0.01,24.738255799469773,0.35190816882210707,0.7512271438979525,
52139.6,79.19999999999709,-0.20,-0.29,0.87,0.00,0.00,0.01,25.043184701630903,0.45246795056280936,0.80209945061283,
52139.7,79.29999999999563,-0.20,-0.28,0.87,0.00,0.00,0.01,24.798733838645873,0.4129997167206941,0.7828487895457084,
52139.8,79.40000000000146,-0.21,-0.29,0.87,-0.00,0.02,0.00,25.963809427739992,0.40219471337653245,0.7158864425821834,
52139.9,79.5,-0.20,-0.29,0.87,0.00,0.00,0.01,25.350086784861308,0.4243558023503962,0.8017348866788455,
52140.0,79.59999999999854,-0.20,-0.29,0.86,-0.00,0.00,0.00,23.886064975210967,0.4291785080012981,0.7842132407371281,
52140.1,79.69999999999709,-0.21,-0.28,0.87,-0.00,0.00,0.01,25.924447920833337,0.39870837357736977,0.7816463259407441,
52140.2,79.79999999999563,-0.19,-0.29,0.87,-0.01,-0.02,0.01,23.74186597552939,0.366890375635894,0.843208935231285,
52140.3,79.90000000000146,-0.20,-0.29,0.86,-0.00,0.02,0.01,25.154908069798225,0.37978390845903726,0.7969805114679673,
52140.4,80.0,-0.20,-0.29,0.87,-0.01,-0.01,0.01,25.141503534991696,0.38709705460213695,0.832551441065093,
52140.5,80.09999999999854,-0.21,-0.29,0.86,0.00,0.02,0.01,24.814902780385818,0.45246795056280936,0.8116587583492039,
52140.6,80.19999999999709,-0.20,-0.29,0.86,-0.00,0.01,0.01,24.882743015994038,0.4337838162890663,0.8246913041949477,
52140.7,80.29999999999563,-0.20,-0.29,0.87,0.00,0.00,0.02,26.27038827273019,0.4416429082029214,0.8371596446376631,
52140.8,80.40000000000146,-0.20,-0.28,0.86,-0.00,0.02,0.01,26.710084237980233,0.3490941650148807,0.7654423058483274,
52140.9,80.5,-0.21,-0.29,0.87,-0.00,0.01,0.01,26.833337474119762,0.4364403021389799,0.8080194448462693,
52141.0,80.59999999999854,-0.21,-0.28,0.86,-0.00,-0.01,0.01,25.79302425075431,0.41934744387863543,0.8272164494286106,
52141.1,80.69999999999709,-0.21,-0.29,0.86,0.00,0.02,0.00,25.569499408474933,0.40037196448022755,0.8308601073870836,
52141.2,80.79999999999563,-0.21,-0.28,0.86,-0.00,-0.00,0.01,24.76935606752828,0.37193515844422,0.8648089147638592,
52141.3,80.90000000000146,-0.21,-0.29,0.87,-0.00,0.01,0.00,25.324841559227963,0.45677823717186417,0.8035161742222684,
52141.4,81.0,-0.21,-0.29,0.87,0.00,0.01,0.01,25.032321106920946,0.4051837997094011,0.8016796419767238,
52141.5,81.09999999999854,-0.20,-0.29,0.86,-0.00,0.01,0.01,25.285222957292664,0.3693664693020549,0.8113163056415229,
52141.6,81.19999999999709,-0.20,-0.29,0.87,0.00,0.01,0.01,26.676060428781458,0.3886291188010356,0.7913616651653597,
52141.7,81.29999999999563,-0.20,-0.28,0.86,-0.01,-0.01,0.02,26.568151986918473,0.44951836631124664,0.8135640524405772,
52141.8,81.40000000000146,-0.21,-0.28,0.87,0.00,0.02,0.01,25.000627992112516,0.40793360199849427,0.7623980879587663,
52141.9,81.5,-0.20,-0.29,0.87,-0.01,-0.02,0.01,25.95551771781869,0.40229962619231,0.7790204918835829,
52142.0,81.59999999999854,-0.21,-0.29,0.86,-0.00,0.02,0.01,24.823257239935295,0.3989458716871096,0.8306884334849765,
52142.1,81.69999999999709,-0.20,-0.28,0.86,-0.01,-0.00,0.02,24.8366281930539,0.4026732255508678,0.8311799971107079,
52142.2,81.79999999999563,-0.20,-0.29,0.86,-0.01,-0.00,0.01,24.925308423367603,0.421787259870817,0.8042211279273785,
52142.3,81.90000000000146,-0.21,-0.29,0.87,-0.09,-0.07,0.05,25.269778392380097,0.42711346613920403,0.8350272947645031,
52142.4,82.0,-0.19,-0.30,0.86,-0.20,-0.00,0.09,25.94745652274997,0.469318625710637,0.8174618625846553,
52142.5,82.09999999999854,-0.20,-0.33,0.84,-0.19,-0.13,0.09,26.1467799164639,0.5269690839087233,0.771704512951422,
52142.6,82.19999999999709,-0.17,-0.34,0.89,-0.25,-0.27,0.05,25.60904527701101,0.4453655392116855,0.8406859979864153,
52142.7,82.29999999999563,-0.19,-0.41,0.92,-0.18,-0.25,0.29,25.283395737123602,0.5581382202753755,0.8145151996637281,
52142.8,82.40000000000146,-0.03,-0.37,0.96,0.26,-0.27,0.09,24.490522656733972,0.6162750037235006,0.6853824476105876,
52142.9,82.5,-0.11,-0.40,1.01,0.44,-0.18,0.06,24.914981436878495,0.5302875062150493,0.7285547437683318,
52143.0,82.59999999999854,-0.11,-0.31,1.09,0.89,-0.18,0.31,23.52773894788872,0.5216316103710519,0.6897111531442102,
52143.1,82.69999999999709,-0.09,-0.15,1.03,1.42,-0.81,0.34,22.37338821010354,0.3853995039387743,0.5338701301229787,
52143.2,82.79999999999563,-0.05,0.01,0.89,1.35,-0.70,0.61,18.306212060390866,0.15689834895672675,0.4994542319634582,
52143.3,82.90000000000146,0.02,0.19,0.75,1.00,-0.82,0.67,16.245725591674876,5.917811651434789,0.4036677460212103,
52143.4,83.0,0.22,0.30,0.65,0.47,-0.86,0.79,14.678603475807908,5.328127740541323,0.47404205724080234,
52143.5,83.09999999999854,0.27,0.23,0.66,-0.11,-0.37,0.61,14.06967661319904,4.8100238434396765,0.469069684618133,
52143.6,83.19999999999709,0.18,0.09,0.67,-0.52,-0.67,0.58,13.464089274808009,4.756593971746256,0.48996975845843654,
52143.7,83.29999999999563,0.37,0.03,0.75,-0.60,-0.07,0.47,14.866882659118556,4.460146522494871,0.20353594536674147,
52143.8,83.40000000000146,0.36,-0.08,0.82,-0.79,-0.14,0.45,16.95361023499125,4.892242480177168,0.052781833151598984,
52143.9,83.5,0.28,-0.13,0.89,-0.40,0.26,0.24,18.04890301375682,1.1846956024504316,0.07363012066538747,
52144.0,83.59999999999854,0.28,-0.15,0.84,-0.21,0.07,0.01,20.939276491798854,0.6360425363953301,0.18025992988182094,
52144.1,83.69999999999709,0.25,-0.20,0.99,0.40,0.31,0.01,21.882052006153355,6.247873904086341,0.16908377239492495,
52144.2,83.79999999999563,0.07,-0.15,0.63,0.13,1.51,-0.10,23.23709319170537,0.04591365574612952,0.160078959053895,
52144.3,83.90000000000146,0.12,-0.07,0.80,0.73,-0.74,-0.27,23.714976280823052,6.185433340304521,0.33457239181846987,
52144.4,84.0,0.16,0.07,0.98,1.38,1.39,-0.29,23.957165942573425,5.91521817251412,0.34690808490988634,
52144.5,84.09999999999854,-0.09,0.08,1.13,1.57,2.24,-0.58,24.715691372081825,5.545542700494984,0.49321137688387556,
52144.6,84.19999999999709,-0.03,0.32,0.91,1.38,0.91,-0.50,31.798839601469734,5.51727185707801,0.7083111008277222,
52144.7,84.29999999999563,-0.19,0.48,0.77,1.10,-1.21,-0.32,37.66307741011082,5.472493678911914,0.7416915707324812,
52144.8,84.40000000000146,-0.22,0.56,0.67,0.16,0.10,0.06,36.59106584946658,5.36315058782562,0.8077140440758622,
52144.9,84.5,-0.24,0.52,0.72,-0.40,0.31,0.17,36.638048528817684,5.407028094501298,0.7821897300789581,
52145.0,84.59999999999854,-0.22,0.45,0.75,-0.50,-0.19,0.23,36.83760850000988,5.382261069194719,0.8077290132210793,
52145.1,84.69999999999709,-0.18,0.47,0.84,-0.80,-0.16,0.28,34.90027793585604,5.429127330651239,0.7877546833847613,
52145.2,84.79999999999563,-0.14,0.36,0.82,-0.85,-0.54,0.19,32.037248633426685,5.366697404464191,0.7188530685465455,
52145.3,84.90000000000146,-0.06,0.28,0.89,-0.88,-0.95,0.23,28.84194688296891,5.516637369791133,0.6413922690059768,
52145.4,85.0,0.06,0.18,0.86,-0.86,-1.08,0.20,26.082434702304923,5.413685136885427,0.5692056992431844,
52145.5,85.09999999999854,0.14,0.09,0.91,-0.69,-0.76,0.20,22.924523986333938,5.317994460142355,0.47084484145445216,
52145.6,85.19999999999709,0.31,0.01,0.68,-0.66,-0.86,0.14,22.200337835267284,5.368349600878481,0.316161174872957,
52145.7,85.29999999999563,0.29,-0.00,0.94,-0.40,0.49,0.04,20.80636921714118,5.863918949495398,0.14096098469564858,
52145.8,85.40000000000146,0.02,-0.14,0.91,0.14,-0.00,0.10,22.10383224692044,6.027459185060386,0.24755209588125146,
52145.9,85.5,0.18,-0.03,0.85,0.74,-0.11,-0.05,21.540013927572097,5.90486790869427,0.2385570100536291,
52146.0,85.59999999999854,0.14,0.02,0.79,0.88,0.31,-0.18,19.287998859394406,5.506304825351558,0.44494621724309097,
52146.1,85.69999999999709,0.12,0.18,0.71,0.55,0.07,-0.23,18.401437443852043,5.430232105758451,0.5445355851831506,
52146.2,85.79999999999563,0.18,0.24,0.73,0.20,0.05,-0.32,19.62594965855156,5.277935466348509,0.7219221123185997,
52146.3,85.90000000000146,0.14,0.29,0.72,0.02,0.11,-0.50,18.592616814208807,5.159741221904451,0.7667369832187547,
52146.4,86.0,0.11,0.33,0.81,-0.32,0.18,-0.46,17.883830685845805,5.3176484999996685,0.6688947382468872,
52146.5,86.09999999999854,0.07,0.30,0.81,-0.40,0.19,-0.36,17.490285875308043,5.352586742779118,0.6726898859997045,
52146.6,86.19999999999709,0.01,0.19,0.88,-0.56,0.37,-0.33,16.153321639836186,5.533011409425841,0.59360129080045,
52146.7,86.29999999999563,-0.01,0.13,0.92,-0.55,0.45,-0.30,17.36103107537107,5.607052189884407,0.7025398305040761,
52146.8,86.40000000000146,-0.04,0.02,0.91,-0.62,0.92,-0.33,18.185543709221346,5.775195378527024,0.6424404477828319,
52146.9,86.5,-0.10,-0.00,0.95,-0.76,0.56,-0.33,18.969127549784677,5.9645755977339086,0.7614915134580329,
52147.0,86.59999999999854,-0.13,-0.09,0.99,-0.69,0.35,-0.32,21.0243049825672,6.1259490914047285,0.7777292294765056,
52147.1,86.69999999999709,-0.22,-0.16,1.04,-0.71,0.00,-0.35,22.84763445085727,6.23836047173205,0.7264140308990203,
52147.2,86.79999999999563,-0.21,-0.21,0.94,-0.32,0.25,-0.09,22.80340983274212,0.1431524341455409,0.7637312916881346,
52147.3,86.90000000000146,-0.19,-0.30,0.94,-0.36,-0.30,-0.23,24.137261650816978,0.2729864655452968,0.8003806476934179,
52147.4,87.0,-0.12,-0.24,0.83,0.13,0.52,-0.21,21.979105987278007,0.3964274548287582,0.7835675143080847,
52147.5,87.09999999999854,-0.25,-0.30,0.95,-0.13,0.04,-0.39,22.31310377334359,0.3445441331770958,0.8238225465689023,
52147.6,87.19999999999709,-0.16,-0.26,0.83,-0.05,-0.23,0.09,22.61888370366672,0.4186575246755922,0.8115666494619658,
52147.7,87.29999999999563,-0.13,-0.26,0.88,0.08,0.20,0.11,21.459480422414707,0.40397012755987755,0.8187317319357555,
52147.8,87.40000000000146,-0.19,-0.25,0.88,0.08,0.20,0.07,22.342582661814188,0.35289975612418895,0.8207700441487914,
52147.9,87.5,-0.19,-0.25,0.87,0.05,0.05,0.03,23.69557975657063,0.33287587323184936,0.7863111965035079,
52148.0,87.59999999999854,-0.19,-0.25,0.88,0.02,0.11,0.02,24.148244242594533,0.2618333669536861,0.7967763038281891,
52148.1,87.69999999999709,-0.21,-0.25,0.87,0.01,0.02,0.04,24.30537594854274,0.2778439051437686,0.8390567177385663,
52148.2,87.79999999999563,-0.21,-0.25,0.87,0.01,0.04,0.01,23.67480094953282,0.38369107972134836,0.7955384455318751,
52148.3,87.90000000000146,-0.22,-0.24,0.88,0.02,0.01,0.01,24.015817704171557,0.314140877694563,0.8654169649000851,
52148.4,88.0,-0.22,-0.25,0.87,0.00,0.02,0.00,24.594757571482585,0.3138448540543861,0.7744775942781859,
52148.5,88.09999999999854,-0.21,-0.24,0.88,0.00,0.01,0.01,24.426980984149473,0.3085354647077821,0.8252840934239906,
52148.6,88.19999999999709,-0.22,-0.25,0.87,-0.01,-0.02,0.01,24.78139019506371,0.28480603669309246,0.8475965211867037,
52148.7,88.29999999999563,-0.21,-0.24,0.87,0.00,0.02,-0.00,23.5557997104747,0.19990067872698883,0.8200154513987297,
52148.8,88.40000000000146,-0.22,-0.25,0.87,-0.00,0.00,0.00,24.052527933670508,0.28744406315729004,0.8102399320634474,
52148.9,88.5,-0.21,-0.25,0.87,-0.00,0.00,0.00,24.392574689851827,0.32011627221262845,0.7951004063976082,
52149.0,88.59999999999854,-0.21,-0.25,0.87,-0.01,-0.01,0.01,24.059131322639224,0.3441986717761948,0.8298267597292268,
52149.1,88.69999999999709,-0.21,-0.24,0.88,-0.01,-0.02,0.01,23.34215714110416,0.2796623836124777,0.8243572847004025,
52149.2,88.79999999999563,-0.21,-0.25,0.87,-0.01,0.01,0.02,24.328061986109784,0.21148221128986353,0.8304688788491907,
52149.3,88.90000000000146,-0.21,-0.25,0.87,-0.01,0.00,0.02,24.818078088361318,0.259753945668184,0.8244776465099881,
52149.4,89.0,-0.21,-0.25,0.88,-0.01,-0.02,0.01,23.522172518710935,0.26137747094549424,0.8360064429403875,
52149.5,89.09999999999854,-0.20,-0.25,0.88,-0.01,0.02,0.02,24.424547078707516,0.25288794862577946,0.8156763129591789,
52149.6,89.19999999999709,-0.22,-0.25,0.87,0.00,0.01,0.01,24.49761825157703,0.2671020064483727,0.798157797143851,
52149.7,89.29999999999563,-0.21,-0.25,0.87,-0.00,-0.01,0.01,23.213020053409682,0.34044368304469835,0.7547096500583148,
52149.8,89.40000000000146,-0.20,-0.25,0.87,-0.01,0.02,0.02,24.256677431173465,0.24666263571414213,0.7930682540007448,
52149.9,89.5,-0.21,-0.25,0.87,0.00,0.01,0.02,23.737622037600985,0.314272061339829,0.8453042282325249,
52150.0,89.59999999999854,-0.20,-0.25,0.88,0.00,0.02,0.01,24.663452718546928,0.2681686735409909,0.8362878307546927,
52150.1,89.69999999999709,-0.22,-0.25,0.86,0.01,0.03,0.01,23.96115606559917,0.33253033050578906,0.8071831326458541,
52150.2,89.79999999999563,-0.21,-0.25,0.87,0.00,-0.01,0.01,22.950769050295463,0.27418547173524105,0.8144734068735588,
52150.3,89.90000000000146,-0.22,-0.25,0.88,0.00,0.02,0.01,24.53070728699032,0.33516040656859214,0.7914808492656255,
52150.4,90.0,-0.21,-0.25,0.87,-0.00,0.01,0.01,24.296505921634083,0.3378499683509079,0.8387288126746859,
52150.5,90.09999999999854,-0.21,-0.25,0.87,0.01,0.02,0.00,25.02646199525614,0.2760018348675363,0.8337704884044138,
52150.6,90.19999999999709,-0.21,-0.25,0.88,-0.00,0.00,0.00,24.61027630889178,0.28309578529949553,0.8059949675478748,
52150.7,90.29999999999563,-0.21,-0.25,0.87,0.00,0.00,0.01,24.023823592425913,0.33272725946350445,0.8205442386845267,
52150.8,90.40000000000146,-0.21,-0.25,0.87,-0.00,-0.01,0.00,23.917328446128764,0.309639508866317,0.8530586609578584,
52150.9,90.5,-0.22,-0.25,0.88,-0.00,0.02,0.01,25.130702337976945,0.314140877694563,0.8148006423536562,
52151.0,90.59999999999854,-0.21,-0.25,0.88,-0.01,-0.02,0.01,23.800039915932913,0.3164125268069495,0.843135212374561,
52151.1,90.69999999999709,-0.21,-0.25,0.87,0.00,0.01,0.01,24.67257181568229,0.2549743318125299,0.8295012038264515,
52151.2,90.79999999999563,-0.21,-0.24,0.87,-0.01,-0.00,0.01,24.424547078707516,0.25288794862577946,0.8156763129591789,
52151.3,90.90000000000146,-0.20,-0.25,0.87,-0.00,0.01,0.01,25.12497164177504,0.2481919336314946,0.8052429268008559,
52151.4,91.0,-0.20,-0.25,0.87,-0.00,0.00,0.00,24.50915951231294,0.208180965971498,0.7411636925223157,
52151.5,91.09999999999854,-0.21,-0.26,0.87,-0.00,0.01,0.01,23.3447981357732,0.3002525466233464,0.8014606097209461,
52151.6,91.19999999999709,-0.21,-0.25,0.88,0.01,0.02,0.01,24.17897433722117,0.27829965900511133,0.8163400692434107,
52151.7,91.29999999999563,-0.20,-0.25,0.88,-0.00,0.01,0.01,24.252181345190376,0.2876558256606041,0.7700532923704575,
52151.8,91.40000000000146,-0.22,-0.25,0.87,-0.00,0.01,0.01,24.600721534133914,0.2436971601974536,0.7647960971774294,
52151.9,91.5,-0.20,-0.25,0.87,-0.00,0.01,0.01,24.87473215936204,0.3192559052594289,0.7944026570524917,
52152.0,91.59999999999854,-0.22,-0.24,0.87,-0.00,0.00,0.01,24.093040488904673,0.3567138791157182,0.8215193533324997,
52152.1,91.69999999999709,-0.21,-0.25,0.87,-0.00,0.01,0.01,24.168545674078114,0.3018741749267292,0.8588236393140302,
52152.2,91.79999999999563,-0.21,-0.25,0.88,0.00,0.01,0.01,23.766718326264566,0.26461360168206166,0.8379300707354596,
52152.3,91.90000000000146,-0.20,-0.25,0.87,-0.00,0.00,0.01,24.44938649537039,0.26809275151460743,0.8053485863730813,
52152.4,92.0,-0.21,-0.25,0.87,0.00,0.00,0.02,24.519367854820402,0.26815929437898794,0.7933155014907298,
52152.5,92.09999999999854,-0.21,-0.24,0.87,0.00,0.01,0.01,24.3266952132837,0.36356793076661287,0.79244086637264,
52152.6,92.19999999999709,-0.21,-0.25,0.87,0.00,0.03,0.01,23.576458597507813,0.3290360597162606,0.8009383270285275,
52152.7,92.29999999999563,-0.21,-0.25,0.87,-0.00,-0.00,0.01,23.914920029136624,0.32664270598231565,0.8180116628628505,
52152.8,92.40000000000146,-0.21,-0.25,0.87,0.00,0.02,0.00,24.46690826402061,0.3540676681268457,0.7923516020044099,
52152.9,92.5,-0.22,-0.25,0.87,-0.00,-0.01,0.01,23.97128699089809,0.32635033796297347,0.7994739555763142,
52153.0,92.59999999999854,-0.21,-0.25,0.87,0.00,0.02,-0.00,24.258147085051654,0.3237516432300705,0.7988968650103422,
52153.1,92.69999999999709,-0.21,-0.25,0.87,-0.00,0.02,0.00,24.540892404311624,0.21973504355106907,0.7821098337680866,
52153.2,92.79999999999563,-0.21,-0.25,0.87,-0.00,-0.00,0.01,23.292546017986098,0.2707196292562142,0.7866309708385689,
52153.3,92.90000000000146,-0.21,-0.25,0.87,0.00,0.01,0.02,25.801817765421102,0.23686713890806715,0.7851043522506255,
52153.4,93.0,-0.21,-0.24,0.87,-0.00,-0.01,0.01,23.72568650218577,0.1690456256567122,0.8168921448524031,
52153.5,93.09999999999854,-0.20,-0.25,0.87,-0.00,0.02,0.01,25.066703014158044,0.3175488984497703,0.8046686302280599,
52153.6,93.19999999999709,-0.22,-0.25,0.87,-0.01,-0.02,0.01,24.510146878384877,0.3509777477460382,0.7906518001154798,
52153.7,93.29999999999563,-0.21,-0.25,0.88,0.00,0.02,0.00,24.30838127066465,0.32642778876434836,0.7688911153683687,
52153.8,93.40000000000146,-0.21,-0.24,0.88,-0.01,-0.01,0.02,23.176984273196545,0.2315575984230108,0.8341775418845218,
52153.9,93.5,-0.21,-0.25,0.87,-0.00,0.00,0.01,24.155550086884798,0.2507435036512428,0.7953341959041625,
52154.0,93.59999999999854,-0.21,-0.25,0.88,-0.00,0.01,0.01,24.834953191016886,0.36917931551543287,0.7843135691238959,
52154.1,93.69999999999709,-0.21,-0.25,0.87,-0.00,0.00,0.01,25.144054963350683,0.30849504258103133,0.833181285352442,
52154.2,93.79999999999563,-0.21,-0.26,0.87,-0.01,0.01,0.02,24.611137722584058,0.3035707393236639,0.7849787368951534,
52154.3,93.90000000000146,-0.22,-0.25,0.87,-0.00,-0.00,0.01,24.264389545175042,0.27130622859853226,0.8280686205378385,
52154.4,94.0,-0.21,-0.24,0.88,-0.00,0.02,0.01,24.092094138949403,0.30257482291157,0.8020303100350674,
52154.5,94.09999999999854,-0.22,-0.25,0.87,-0.01,-0.01,-0.00,26.27165392585705,0.26416607358044925,0.8274231526444801,
52154.6,94.19999999999709,-0.20,-0.25,0.87,-0.02,-0.01,0.01,24.510146878384877,0.3509777477460382,0.7906518001154798,
52154.7,94.29999999999563,-0.22,-0.25,0.86,-0.04,-0.02,0.03,24.532119761651252,0.32845456702422937,0.7915377279973427,
52154.8,94.40000000000146,-0.20,-0.25,0.88,-0.10,-0.10,0.04,23.938109783355912,0.2963558755487175,0.8626494754842197,
52154.9,94.5,-0.18,-0.28,0.85,-0.17,-0.06,-0.01,24.204367374504958,0.35960696528781677,0.7668239949018281,
52155.0,94.59999999999854,-0.16,-0.27,0.89,-0.13,-0.14,-0.01,23.664965666571334,0.4063854371533965,0.8374710124215635,
52155.1,94.69999999999709,-0.18,-0.31,0.86,-0.06,-0.07,-0.04,24.51050795067291,0.4002608065433308,0.7998086208542504,
52155.2,94.79999999999563,-0.17,-0.30,0.87,0.03,-0.08,-0.02,25.437173585129305,0.3928565535219621,0.7802029520151903,
52155.3,94.90000000000146,-0.13,-0.25,0.88,0.05,-0.04,-0.03,22.081548858719128,0.47590618931599715,0.7669101605797499,
52155.4,95.0,-0.15,-0.32,0.87,0.05,0.13,0.01,23.355515408571055,0.36490684595702605,0.8019048801102518,
52155.5,95.09999999999854,-0.13,-0.34,1.00,0.04,0.23,0.10,22.356804333356767,0.38813265188185125,0.7865770730994934,
52155.6,95.19999999999709,-0.21,-0.33,1.09,0.23,0.16,0.22,24.33672533435836,0.3706781471071025,0.7736289184485055,
52155.7,95.29999999999563,-0.18,-0.27,1.22,0.68,-0.37,0.36,25.554027079894862,0.30768221852684174,0.7561568307828099,
52155.8,95.40000000000146,-0.17,-0.15,1.02,1.33,-0.67,0.40,22.734973059143925,0.09658678230155437,0.6749543523382947,
52155.9,95.5,-0.19,-0.02,0.95,1.33,-0.39,0.56,20.5177021130535,6.217591751969252,0.6841752492606322,
52156.0,95.59999999999854,-0.08,0.16,0.82,1.08,-0.91,0.67,21.472060916456062,5.891769267622469,0.6767411019663564,
52156.1,95.69999999999709,0.03,0.25,0.71,0.70,-1.08,0.67,17.244831109639783,5.476830104233202,0.6517544025707271,
52156.2,95.79999999999563,0.14,0.31,0.65,0.24,-0.18,0.75,15.513536025033108,5.009517387192082,0.6283968592366229,
52156.3,95.90000000000146,0.15,0.25,0.64,-0.51,0.40,0.76,17.22934125264225,5.1789889215921745,0.662933396679846,
52156.4,96.0,0.20,0.14,0.73,-0.83,-1.02,0.51,16.420697305534866,5.097930341218932,0.5428566515395072,
52156.5,96.09999999999854,0.32,0.01,0.84,-0.89,-0.64,0.51,15.625994368359411,5.1574576462750095,0.17028045079595427,
52156.6,96.19999999999709,0.34,-0.13,0.85,-0.71,0.15,0.24,16.60858512938414,3.962689929666565,0.11957008529577409,
52156.7,96.29999999999563,0.26,-0.18,0.80,-0.51,0.61,0.11,19.037394779748624,1.0986743443911198,0.11111151254626157,
52156.8,96.40000000000146,0.24,-0.20,0.85,-0.39,0.70,0.11,22.17532637865788,0.8418751419121117,0.18176846633224178,
52156.9,96.5,0.11,-0.35,0.85,0.30,0.54,0.51,25.174916087248434,0.5285717134276405,0.2320763732638874,
52157.0,96.59999999999854,-0.02,-0.05,0.86,0.80,0.82,-0.30,23.97417151853219,0.33445003729599815,0.24122933091577414,
52157.1,96.69999999999709,0.22,-0.24,0.81,1.14,-0.40,-0.34,24.594023664296984,6.214998498006122,0.3407466773927074,
52157.2,96.79999999999563,0.04,0.21,0.48,1.48,1.41,-0.05,24.16504293395731,5.730659011198614,0.4164166933205759,
52157.3,96.90000000000146,0.09,0.55,0.86,1.54,0.42,-0.24,29.387837620349,5.6357181510969525,0.6658698536362968,
52157.4,97.0,-0.38,0.55,0.56,1.30,0.04,0.52,36.983280005970265,5.520348296518689,0.7336011424605552,
52157.5,97.09999999999854,-0.34,0.53,0.69,0.66,0.33,-0.12,39.568343407325,5.466139422449541,0.7917770773821818,
52157.6,97.19999999999709,-0.22,0.53,0.76,-0.17,-0.05,0.04,40.55494667731669,5.434880001996121,0.8256323043132677,
52157.7,97.29999999999563,-0.25,0.50,0.79,-0.50,0.26,0.06,40.146507942783764,5.483710523610048,0.7940919587847974,
52157.8,97.40000000000146,-0.27,0.42,0.79,-0.90,-0.04,-0.00,39.44439250387816,5.47467568168838,0.7947267604973789,
52157.9,97.5,-0.29,0.32,0.87,-0.85,-0.95,0.07,38.308078782418725,5.60503224073769,0.7329778354668539,
52158.0,97.59999999999854,-0.15,0.29,0.84,-0.83,-1.38,0.10,32.877267222200814,5.66032968093569,0.7092001157458427,
52158.1,97.69999999999709,0.04,0.20,0.87,-0.84,-1.11,0.22,27.50865500165357,5.570992253809085,0.6535474159955893,
52158.2,97.79999999999563,0.06,0.10,0.96,-0.68,-0.95,0.19,25.183824173464995,5.686114162143758,0.5211979180196725,
52158.3,97.90000000000146,0.42,0.14,0.78,-0.85,-1.17,0.04,24.112857566037253,5.765594401632558,0.44447197983750036,
52158.4,98.0,0.15,-0.05,0.94,-0.15,-0.34,-0.03,21.2773377094034,5.7656587704264775,0.3298930081424681,
52158.5,98.09999999999854,0.11,-0.01,0.89,0.77,0.05,-0.01,19.891862657880985,5.7512463402106215,0.3637955701684865,
52158.6,98.19999999999709,0.21,0.08,0.76,0.64,-0.34,-0.29,20.186047161343897,5.428485639982054,0.478379856392081,
52158.7,98.29999999999563,0.21,0.15,0.76,0.70,0.18,-0.39,19.252036255939267,5.21173570206482,0.5249220515659613,
52158.8,98.40000000000146,0.16,0.21,0.72,0.41,0.09,-0.59,18.232536850367257,5.133152449661563,0.7181119362541349,
52158.9,98.5,0.09,0.32,0.66,0.17,0.28,-0.92,19.425539889537173,5.060334415103202,0.8417839585977044,
52159.0,98.59999999999854,0.07,0.36,0.81,-0.30,0.37,-0.80,19.535669939881764,5.09343487727206,0.782048405710071,
52159.1,98.69999999999709,0.01,0.45,0.77,-0.57,0.79,-0.60,20.727303249578803,5.29696632240447,0.8364116108015784,
52159.2,98.79999999999563,-0.10,0.29,0.82,-0.78,1.00,-0.47,19.756948144893233,5.571873962870265,0.7975132401533948,
52159.3,98.90000000000146,-0.16,0.11,0.93,-1.01,0.43,-0.47,20.798603318492326,5.837738519669216,0.8395023627839253,
52159.4,99.0,-0.24,0.06,1.02,-1.17,0.34,-0.23,21.708744781769397,6.017047452386963,0.7860754829139724,
52159.5,99.09999999999854,-0.20,-0.05,1.05,-0.75,-0.28,-0.13,21.677695910774283,6.261583729503377,0.8442698460467303,
52159.6,99.19999999999709,-0.17,-0.14,0.93,-0.43,0.05,-0.04,22.81928351197732,6.252021805256907,0.7998990714170917,
52159.7,99.29999999999563,-0.17,-0.23,0.88,-0.41,0.33,-0.25,21.324525786052078,0.1437302331189551,0.8089134683172521,
52159.8,99.40000000000146,-0.17,-0.28,1.12,-0.05,0.08,-0.41,24.630846514076612,0.24132212471036443,0.8140801403849958,
52159.9,99.5,-0.25,-0.15,0.71,-0.28,0.45,-0.26,24.23248026925845,0.1883562580326979,0.7984416712929434,
52160.0,99.59999999999854,-0.30,-0.30,0.88,-0.08,0.01,-0.09,25.529905992776392,0.3886291188010356,0.8379077997148234,
52160.1,99.69999999999709,-0.25,-0.28,0.88,-0.04,-0.15,0.01,25.176643938380668,0.28666291996274407,0.8785214833492274,
52160.2,99.79999999999563,-0.21,-0.25,0.86,-0.01,0.20,0.03,25.016334663575318,0.3451864558343066,0.8236390942330397,
52160.3,99.90000000000146,-0.27,-0.26,0.85,-0.02,-0.04,-0.01,26.114427047132395,0.32592589547737516,0.7698803946581269,
52160.4,100.0,-0.21,-0.26,0.87,0.01,-0.09,-0.01,26.47512417345762,0.4406331634455608,0.7923576917431192,
52160.5,100.09999999999854,-0.25,-0.25,0.86,0.04,0.08,-0.05,25.850607342961982,0.37289926145264257,0.7869910486773444,
52160.6,100.19999999999709,-0.24,-0.25,0.87,0.02,-0.10,-0.00,25.204350814889082,0.4738637459060573,0.8175521607624556,
52160.7,100.29999999999563,-0.23,-0.25,0.88,0.02,0.02,0.01,25.374305901836998,0.35057462647417464,0.8716501639018577,
52160.8,100.40000000000146,-0.24,-0.25,0.86,0.02,0.01,0.03,25.867288222772792,0.3730940482217762,0.8272306987579513,
52160.9,100.5,-0.24,-0.24,0.87,0.03,0.04,0.01,25.81942292151395,0.3867878210976955,0.856701966514016,
52161.0,100.59999999999854,-0.25,-0.24,0.86,0.01,0.02,0.02,27.518839001673015,0.3146360499294753,0.813715996212196,
52161.1,100.69999999999709,-0.24,-0.25,0.87,0.02,0.05,0.02,26.45003591679981,0.29115464925592044,0.8025223293933275,
52161.2,100.79999999999563,-0.26,-0.23,0.86,0.01,0.01,0.01,26.412746922650815,0.3641144028043596,0.8425152941960549,
52161.3,100.90000000000146,-0.24,-0.24,0.87,0.01,0.02,0.01,26.457492322591722,0.311337551160802,0.8595939217310682,
52161.4,101.0,-0.25,-0.24,0.87,-0.00,0.01,0.02,25.138166202012428,0.2977060675303176,0.8297379246895854,
52161.5,101.09999999999854,-0.25,-0.23,0.87,0.01,0.02,0.01,26.036207481121362,0.2875758307804471,0.8321425677586421,
52161.6,101.19999999999709,-0.25,-0.24,0.86,-0.00,-0.02,0.01,24.88155541761809,0.3239424240950727,0.8538136138072688,
52161.7,101.29999999999563,-0.25,-0.24,0.86,-0.00,-0.01,0.01,26.203850862039342,0.31997435733025775,0.8440973572159657,
52161.8,101.40000000000146,-0.25,-0.24,0.87,-0.01,-0.02,0.00,25.69599385118233,0.3257585489670661,0.8285014090250544,
52161.9,101.5,-0.25,-0.24,0.86,-0.00,-0.01,0.00,26.255763176872236,0.41028217696662894,0.7567393789107949,
52162.0,101.59999999999854,-0.24,-0.24,0.87,-0.00,0.00,0.00,26.72973999125319,0.33875296442690334,0.8192626914246948,
52162.1,101.69999999999709,-0.25,-0.24,0.87,-0.00,0.01,0.01,25.96027157022823,0.3544877791794989,0.8284306656724392,
52162.2,101.79999999999563,-0.24,-0.24,0.87,-0.00,0.00,0.02,27.659222693344077,0.26226937139467954,0.8337435591173551,
52162.3,101.90000000000146,-0.24,-0.24,0.87,-0.00,-0.02,0.01,26.94744885884376,0.3509199974104285,0.8517207016262485,
52162.4,102.0,-0.25,-0.25,0.87,-0.01,-0.01,0.00,26.361845534787584,0.2984246484188816,0.8494128163795401,
52162.5,102.09999999999854,-0.25,-0.24,0.87,0.00,0.02,0.01,25.490025500183403,0.31440374780666985,0.8631353068677274,
52162.6,102.19999999999709,-0.24,-0.24,0.87,-0.01,-0.01,0.01,26.40203969393274,0.3103417612893501,0.8411377675530275,
52162.7,102.29999999999563,-0.25,-0.24,0.87,0.00,0.02,0.00,24.651006064661946,0.3024957128621218,0.8423743381145725,
52162.8,102.40000000000146,-0.24,-0.24,0.87,-0.00,-0.01,0.01,25.880653005672016,0.29253232571800586,0.8587505792452287,
52162.9,102.5,-0.25,-0.24,0.86,-0.00,0.01,0.01,25.323925446107285,0.3075554036005116,0.8580327698546016,
52163.0,102.59999999999854,-0.24,-0.24,0.87,-0.00,0.01,0.01,26.314296494491355,0.3182581355340106,0.8075661195996384,
52163.1,102.69999999999709,-0.24,-0.24,0.86,-0.00,0.00,0.00,26.36476057164184,0.27601624199389807,0.852536520839898,
52163.2,102.79999999999563,-0.25,-0.24,0.87,0.00,0.01,0.00,25.07050458207812,0.28445568237571267,0.8444707676537154,
52163.3,102.90000000000146,-0.24,-0.25,0.87,-0.00,-0.01,0.02,25.059030308453675,0.30191610301910793,0.7932351923329775,
52163.4,103.0,-0.25,-0.23,0.86,-0.00,0.01,0.01,24.907537011916695,0.3140386250241241,0.8343164524097165,
52163.5,103.09999999999854,-0.24,-0.24,0.87,-0.00,0.01,0.01,25.46534900605134,0.31662239422240784,0.8131571303696321,
52163.6,103.19999999999709,-0.24,-0.24,0.87,-0.00,-0.00,0.01,25.234898454323133,0.42333730978109224,0.8444272186550994,
52163.7,103.29999999999563,-0.24,-0.24,0.88,0.00,0.02,0.01,27.11030062540805,0.3062719145210969,0.8535463044462643,
52163.8,103.40000000000146,-0.25,-0.24,0.87,-0.00,0.01,0.02,26.92495868149105,0.33100503933354286,0.8087027183867173,
52163.9,103.5,-0.25,-0.24,0.87,0.00,0.00,0.00,26.292523652171543,0.28528955942905393,0.8219394589216054,
52164.0,103.59999999999854,-0.24,-0.24,0.87,0.00,0.02,0.01,26.17317901975226,0.30906454797205946,0.8517205306642408,
52164.1,103.69999999999709,-0.24,-0.24,0.86,-0.01,0.01,0.01,26.95385130180843,0.34232915834671424,0.8014950765995257,
52164.2,103.79999999999563,-0.24,-0.25,0.87,0.00,0.01,0.02,25.740235041661915,0.3670608266992518,0.8337557312969093,
52164.3,103.90000000000146,-0.25,-0.24,0.87,-0.01,0.00,0.01,26.144433441939416,0.32008942635641346,0.8156116485530245,
52164.4,104.0,-0.25,-0.24,0.87,-0.00,0.03,0.01,25.93671721710363,0.31139342391423747,0.8181304945220982,
52164.5,104.09999999999854,-0.25,-0.24,0.86,-0.01,-0.01,0.01,25.104633038544897,0.30906454797205946,0.9017932790189747,
52164.6,104.19999999999709,-0.24,-0.24,0.86,0.00,0.02,0.01,26.428545173732132,0.2540737908958909,0.8430482767683294,
52164.7,104.29999999999563,-0.25,-0.24,0.86,0.00,0.00,0.01,24.95791858308701,0.29444958253964454,0.8580676282527795,
52164.8,104.40000000000146,-0.24,-0.24,0.87,0.00,0.01,0.00,26.46680373600107,0.33100503933354286,0.8270162177855509,
52164.9,104.5,-0.26,-0.24,0.86,0.00,0.00,0.01,25.169602698493275,0.32592589547737516,0.8069457294913245,
52165.0,104.59999999999854,-0.24,-0.24,0.86,0.00,-0.00,0.01,26.54714108901371,0.3510377671134097,0.8096989430265462,
52165.1,104.69999999999709,-0.25,-0.24,0.86,0.00,0.01,0.01,26.660093773278444,0.25492675056759007,0.8341728919867214,
52165.2,104.79999999999563,-0.25,-0.23,0.86,0.01,0.01,0.00,25.700404666074814,0.316959352181168,0.8024728151529648,
52165.3,104.90000000000146,-0.25,-0.24,0.87,-0.00,-0.01,0.01,24.991282480096935,0.37193515844422,0.8544559100441104,
52165.4,105.0,-0.25,-0.24,0.87,0.00,0.02,0.01,27.112657560630236,0.31997435733025775,0.8071512945169734,
52165.5,105.09999999999854,-0.25,-0.24,0.87,-0.00,0.00,0.01,25.580689982875754,0.2869718416830633,0.8375908861169554,
