Clock Time (s),Elapsed Time (s),ax,ay,az,gx,gy,gz,mr,mtheta,mphi,
71633.6,0.0,-0.42,-0.60,0.65,0.00,-0.02,-0.00,42.397063577563955,0.4399221151653518,1.8975950163329605,
71633.7,0.09999999999126885,-0.42,-0.60,0.65,-0.01,0.07,0.01,42.538243969397705,0.4461641472713309,1.9066611264187785,
71633.8,0.19999999999708962,-0.41,-0.60,0.65,-0.01,-0.02,0.01,43.181751932963536,0.47187696059231454,1.9436497096006364,
71633.9,0.29999999998835847,-0.41,-0.61,0.65,-0.00,-0.01,0.01,41.166290821496176,0.46901224193353597,1.8826300308401593,
71634.1,0.5,-0.42,-0.60,0.65,-0.00,0.01,-0.00,41.4011038500183,0.47685763893395117,1.9178063226778024,
71634.2,0.5999999999912689,-0.42,-0.60,0.66,-0.00,0.00,0.00,41.447675447484386,0.4422174585948969,1.8829765744667115,
71634.3,0.6999999999970896,-0.42,-0.60,0.65,-0.00,0.00,0.00,41.82578152288371,0.472875346174166,1.8878510386567615,
71634.4,0.7999999999883585,-0.41,-0.60,0.64,-0.00,0.01,0.00,41.236538409522204,0.47532607896773527,1.9249320350040084,
71634.5,0.8999999999941792,-0.42,-0.60,0.65,-0.00,0.01,0.00,40.908886565146204,0.48554612517890194,1.8928940885614765,
71634.6,1.0,-0.42,-0.60,0.65,-0.00,0.02,-0.00,41.46744506236187,0.46789752598192275,1.9221034318611911,
71634.7,1.0999999999912689,-0.42,-0.60,0.64,-0.00,0.02,0.00,41.667432126302195,0.4591843747328187,1.9252026282296968,
71634.8,1.1999999999970896,-0.42,-0.60,0.65,-0.01,-0.00,0.00,41.556590331739194,0.4891633189299517,1.9044582831882122,
71634.9,1.2999999999883585,-0.42,-0.60,0.65,-0.00,0.02,0.00,41.41075464175943,0.48503777936744874,1.906446397564875,
71635.1,1.5,-0.42,-0.60,0.64,-0.01,-0.01,-0.01,41.63034950609951,0.4757502379740805,1.9163261259713016,
71635.2,1.5999999999912689,-0.42,-0.60,0.65,-0.01,-0.00,-0.00,40.89029469201708,0.4432866203829598,1.867881694405573,
71635.3,1.6999999999970896,-0.42,-0.60,0.66,-0.01,-0.01,-0.00,41.52161485298952,0.47216045670532897,1.8917780828691548,
71635.4,1.7999999999883585,-0.42,-0.60,0.65,-0.01,-0.01,-0.00,41.53354066293891,0.4585686459013318,1.875235026313192,
71635.5,1.8999999999941792,-0.42,-0.61,0.65,-0.01,-0.02,-0.00,41.82430633017122,0.49237210060040265,1.8903800399020119,
71635.6,2.0,-0.42,-0.60,0.65,0.38,-0.75,0.21,40.911159846672646,0.523629948830565,1.9569950475554871,
71635.7,2.099999999991269,-0.41,-0.61,0.66,-0.02,-0.03,0.00,41.82572653284101,0.5001073147962068,1.8775518993001783,
71635.8,2.1999999999970896,-0.33,-0.48,0.95,1.14,-0.78,0.35,41.32687503308229,0.3714568503985817,2.0984950201530834,
71635.9,2.2999999999883585,-0.41,-0.60,0.66,-0.02,-0.03,0.00,41.733976565862974,0.4894220899087645,1.8946328054668062,
71636.1,2.5,-0.20,-0.24,1.05,1.38,-0.80,-0.06,40.79200166699349,0.18963292626126874,2.2850191414446135,
71636.2,2.599999999991269,-0.18,-0.23,1.06,1.19,-1.21,-0.31,42.78353655321168,0.12745032102111956,2.3627434083115144,
71636.3,2.6999999999970896,-0.21,-0.26,1.05,0.98,-0.69,-0.31,43.38383685198902,5.932446809184049,2.6174637474489915,
71636.4,2.7999999999883585,-0.14,-0.20,1.06,0.77,-0.33,-0.35,40.61459959177241,0.19542793306511913,2.2771020044731323,
71636.5,2.8999999999941792,-0.20,-0.25,1.05,1.33,-1.03,0.11,42.04372604800864,0.11372388327515627,2.3748906038167052,
71636.6,3.0,-0.13,-0.17,1.04,1.34,-1.06,0.12,43.64987743396309,5.633988221323468,2.5819126775223276,
71636.7,3.099999999991269,0.11,0.30,0.78,1.33,-1.04,0.11,43.424999712147375,5.583431088042653,2.577183897709034,
71636.8,3.1999999999970896,-0.11,-0.13,1.03,1.39,-0.86,0.01,42.46062057954405,0.01501168808485839,2.4428484789666327,
71636.9,3.2999999999883585,-0.12,-0.10,1.03,1.40,-0.84,-0.01,42.51878290826302,0.0044214892415731875,2.44928874090583,
71637.1,3.5,0.18,0.45,0.85,0.08,0.20,-0.00,45.422863185845074,5.58002323871221,2.515980844154085,
71637.2,3.599999999991269,0.18,0.43,0.91,0.01,0.24,-0.07,44.42707620359458,5.6145864345448615,2.49690473326887,
71637.3,3.6999999999970896,0.17,0.45,0.87,0.06,0.15,0.04,43.304958145690435,5.581490110248053,2.493718082586008,
71637.4,3.7999999999883585,0.14,0.41,0.93,0.05,0.24,-0.04,45.132633426380075,5.54401377071258,2.5064056975586784,
71637.5,3.8999999999941792,0.13,0.39,0.87,0.07,0.33,-0.04,43.11552040738926,5.465892243547984,2.534044342154223,
71637.6,4.0,0.13,0.39,0.87,0.07,0.33,-0.04,44.930712213362476,5.5581343281100875,2.507627276715034,
71637.7,4.099999999991269,0.14,0.39,0.84,0.08,0.29,-0.04,44.358021822439284,5.473171896521634,2.487035498228349,
71637.8,4.19999999999709,0.14,0.39,0.86,0.07,0.25,-0.03,44.78725041794819,5.569171023193039,2.5119971306208186,
71637.9,4.2999999999883585,0.12,0.41,0.85,0.08,0.23,-0.02,43.76826018931984,5.361327091228212,2.563658991533401,
71638.1,4.5,0.36,0.43,0.92,-0.06,0.45,-0.08,43.31621520862597,5.309349097648369,2.584210811330903,
71638.2,4.599999999991269,0.30,0.40,0.93,-0.32,0.37,0.73,45.796247662881726,5.482073403214864,2.5110506921497002,
71638.3,4.69999999999709,0.29,0.41,0.94,-0.04,0.52,-0.07,44.24093692497933,5.293031678216076,2.5952150112159673,
71638.4,4.7999999999883585,0.28,0.42,0.94,0.02,0.78,-0.01,44.272630371370525,5.292651800404105,2.58756524539125,
71638.5,4.899999999994179,0.26,0.42,0.89,0.06,1.02,0.04,44.03562307950235,5.699599636038796,2.5346233745172735,
71638.6,5.0,0.35,0.42,0.93,0.05,1.12,0.08,44.34311445985724,5.291248320212321,2.5706525873432624,
71638.7,5.099999999991269,0.25,0.44,0.77,0.01,1.17,0.12,43.82678747067825,5.339131881595737,2.5721080707992856,
71638.8,5.19999999999709,0.25,0.45,0.74,-0.05,1.20,0.14,44.17913874217106,6.236751009715657,2.498343931337262,
71638.9,5.2999999999883585,0.23,0.43,0.66,-0.09,1.22,0.17,43.33126469421358,5.388868702371338,2.5724214000898016,
71639.1,5.5,-0.25,-0.27,0.86,-0.63,0.33,-0.09,42.29157126426021,0.14423035378895965,2.300702257116298,
71639.2,5.599999999991269,-0.25,-0.28,0.84,-0.84,0.82,-0.14,41.553960100091544,0.10367720106692685,2.3760266277329656,
71639.3,5.69999999999709,-0.26,-0.28,0.84,-0.45,0.63,-0.10,41.6408813547456,0.10349363981376329,2.366622804369668,
71639.4,5.7999999999883585,-0.27,-0.28,0.83,-0.53,0.56,-0.06,42.058365398574395,0.10265623858842998,2.325400668630608,
71639.5,5.899999999994179,-0.26,-0.29,0.82,-0.57,0.49,-0.06,42.060961710355606,0.40572884981560553,2.1106562325672313,
71639.6,6.0,-0.24,-0.26,0.88,-0.58,0.43,-0.06,41.38393045615653,0.16065736562293179,2.3172062044734276,
71639.7,6.099999999991269,-0.06,-0.51,0.72,-0.59,0.41,-0.07,42.248853238875014,0.10618431228309592,2.3644480212631636,
71639.8,6.19999999999709,-0.25,-0.32,0.82,-0.59,0.38,-0.07,41.150880914021755,0.1824500535156467,2.3135131636107547,
71639.9,6.2999999999883585,-0.24,-0.27,0.87,-0.61,0.34,-0.09,41.79309751621672,0.15873170991511787,2.3059281140836703,
71640.1,6.5,-0.32,-0.63,0.73,-0.05,-0.17,0.03,40.83581393825768,0.495526935400314,1.914741698781117,
71640.2,6.599999999991269,-0.42,-0.58,0.65,-0.14,-0.05,0.18,41.599799278361914,0.5034576536068138,1.910974919634741,
71640.3,6.69999999999709,-0.41,-0.60,0.67,-0.11,-0.16,0.10,42.87832319482654,0.5147337882878522,1.9261920303728879,
71640.4,6.7999999999883585,-0.42,-0.56,0.64,-0.10,-0.20,0.09,43.24858494794945,0.5195708328448969,1.9028891614221413,
71640.5,6.899999999994179,-0.37,-0.61,0.69,-0.08,-0.21,0.08,41.44868876092464,0.47941130257597886,1.8837293225505587,
71640.6,7.0,-0.36,-0.62,0.69,-0.21,-0.33,0.21,42.71274517049917,0.5107210684946464,1.8950909490032584,
71640.7,7.099999999991269,-0.34,-0.61,0.69,-0.05,-0.24,0.23,42.71274517049917,0.5107210684946464,1.8950909490032584,
71640.8,7.19999999999709,-0.33,-0.62,0.69,-0.07,-0.20,0.08,41.54904331028574,0.5122086008127167,1.9119180646051188,
71640.9,7.2999999999883585,-0.32,-0.62,0.72,-0.06,-0.18,0.04,42.413985900879446,0.4680335457895982,1.925980071390233,
71641.1,7.5,-0.44,-0.55,0.67,0.05,0.18,0.02,41.49263790119881,0.4851855750958137,1.930879062124484,
71641.2,7.599999999991269,-0.43,-0.55,0.67,0.11,0.21,0.02,42.026480937618366,0.5024090333876507,1.929402262064797,
71641.3,7.69999999999709,-0.44,-0.56,0.68,0.05,0.18,0.00,42.776850047660126,0.4983094588612757,1.8776203611104412,
71641.4,7.7999999999883585,-0.44,-0.56,0.67,0.05,0.17,0.00,43.02994422492318,0.4460764732594064,1.9174616437516943,
71641.5,7.899999999994179,-0.44,-0.55,0.67,0.06,0.18,0.00,43.28438748555881,0.43302477379549814,1.9146025880136397,
71641.6,8.0,-0.45,-0.55,0.66,0.04,0.20,0.01,41.987103972529475,0.4445595289641418,1.8926099437135135,
71641.7,8.099999999991269,-0.47,-0.56,0.67,0.05,0.19,0.02,42.62720844718781,0.4444823764395939,1.8615468870455734,
71641.8,8.19999999999709,-0.45,-0.56,0.66,-0.04,-0.05,0.01,42.544269884439196,0.4623006572954651,1.929107886097974,
71641.9,8.299999999988358,-0.44,-0.56,0.66,-0.03,-0.04,0.01,41.464854997937714,0.3958608876382064,1.8760083893593797,
71642.1,8.5,-0.45,-0.57,0.66,-0.02,-0.02,0.01,40.70403665485771,0.4563144847164382,1.9072994700436186,
71642.2,8.599999999991269,-0.45,-0.57,0.66,-0.02,-0.02,0.00,41.664105654627946,0.4322135596755257,1.8901355887647917,
71642.3,8.69999999999709,-0.45,-0.56,0.66,-0.02,-0.01,0.01,40.87925879954283,0.44372582032722063,1.8700116766611488,
71642.4,8.799999999988358,-0.46,-0.57,0.66,-0.02,0.00,0.00,43.38532701271249,0.41756765100838183,1.8464872635480043,
71642.5,8.89999999999418,-0.45,-0.57,0.66,-0.02,-0.00,0.00,41.17848224497838,0.450786947722365,1.8743806525295117,
71642.6,9.0,-0.45,-0.57,0.66,-0.03,-0.03,-0.00,40.964434574396364,0.44150005487344823,1.8673276607801537,
71642.7,9.099999999991269,-0.45,-0.57,0.67,-0.02,0.00,0.00,41.91874759579537,0.421333049282259,1.8603791303674677,
71642.8,9.19999999999709,-0.45,-0.57,0.67,0.00,-0.00,0.01,42.865129184454815,0.4679182794889323,1.879415562775945,
71642.9,9.299999999988358,-0.45,-0.56,0.67,-0.01,0.00,0.00,41.605021331565254,0.4661360101534984,1.8873154670147516,
71643.1,9.5,-0.45,-0.56,0.67,-0.01,0.01,-0.00,40.63912031528242,0.4463682229589016,1.870804537335131,
71643.2,9.599999999991269,-0.45,-0.56,0.66,-0.01,0.01,-0.00,41.39257662914934,0.449252022684245,1.852076777100056,
71643.3,9.69999999999709,-0.45,-0.56,0.66,-0.01,0.01,-0.00,42.57587344964281,0.43584929908785447,1.892951123354593,
71643.4,9.799999999988358,-0.45,-0.56,0.66,-0.01,0.00,-0.00,41.81901600946632,0.4655500238946395,1.8698361921207682,
71643.5,9.89999999999418,-0.46,-0.57,0.66,-0.01,0.01,0.00,41.421415958414556,0.43750604325080467,1.9012475112146856,
71643.6,10.0,-0.46,-0.57,0.66,-0.01,0.01,0.00,43.20061689374354,0.44977466424382956,1.871362020394303,
71643.7,10.099999999991269,-0.46,-0.57,0.66,-0.01,-0.01,0.01,42.24500917268216,0.46054546960541876,1.8701954181974487,
71643.8,10.19999999999709,-0.46,-0.57,0.66,-0.01,-0.01,0.01,42.69961709430191,0.4528976940173748,1.8725471315856246,
71643.9,10.299999999988358,-0.45,-0.56,0.65,-0.01,-0.01,0.01,41.636200595155174,0.36291397055741587,1.842150167465554,
71644.1,10.5,-0.73,-0.47,1.02,1.76,-1.96,1.46,42.71420957948303,0.3542656824987588,1.8509348632585836,
71644.2,10.599999999991269,-0.71,-0.46,1.03,1.79,-2.03,1.44,42.764505141530634,0.308524433595219,1.9043197329384205,
71644.3,10.69999999999709,-0.71,-0.46,1.02,1.67,-1.60,1.46,42.800081775622814,0.2995389633244624,1.9146831542174925,
71644.4,10.799999999988358,-0.70,-0.45,1.02,1.68,-1.65,1.46,41.34814747966346,0.20142635591873753,1.9482747319741098,
71644.5,10.89999999999418,-0.69,-0.45,1.02,1.69,-1.71,1.47,41.392581460933314,0.19590754206569003,1.9647965587643825,
71644.6,11.0,-0.69,-0.44,1.03,1.71,-1.81,1.47,41.45783761847692,0.059476874014837436,2.0977708008751033,
71644.7,11.099999999991269,-0.68,-0.43,1.02,1.73,-1.86,1.47,43.404867238594335,5.5352586977783735,2.2966182749042967,
71644.8,11.19999999999709,-0.66,-0.42,1.02,-0.05,0.23,-0.13,41.96274657359787,0.017384675785325467,2.1257405808889547,
71644.9,11.299999999988358,-0.64,-0.41,1.01,1.96,-2.03,1.30,41.99977261843211,6.2425835525282105,2.1983249691233215,
71645.1,11.5,-0.11,0.50,0.93,-0.01,0.03,-0.11,44.80597058428709,5.535887847480703,2.377487801897109,
71645.2,11.599999999991269,0.06,0.49,0.85,-0.13,-0.31,-0.10,44.36952219711184,5.56610055810808,2.34245563789413,
71645.3,11.69999999999709,0.24,0.44,0.85,-0.19,0.00,-0.10,44.83637920260734,5.507177669577368,2.427421512661262,
71645.4,11.799999999988358,0.06,0.49,0.85,-0.16,-0.25,-0.16,43.782674655621484,5.506884163648956,2.376788937569424,
71645.5,11.89999999999418,0.02,0.48,1.01,-0.13,-0.21,-0.17,43.60127177044266,5.628456136562731,2.373841604078762,
71645.6,12.0,-0.03,0.49,1.01,-0.07,-0.11,-0.17,44.23672230172575,5.552032516851723,2.3555525522777163,
71645.7,12.099999999991269,-0.02,0.22,0.54,-0.66,-0.23,1.17,44.51046281493824,5.624507240348782,2.342823019552926,
71645.8,12.19999999999709,-0.06,0.49,0.99,-0.04,-0.05,-0.15,44.51450325455739,5.555858484387035,2.428561667423344,
71645.9,12.299999999988358,-0.10,0.50,0.95,-1.83,-0.45,0.61,44.59085668609654,5.537508945463639,2.3789576398193257,
71646.1,12.5,-0.01,-0.19,0.96,-1.06,1.70,-0.24,42.26960491890124,5.6947347418880545,2.6866390182737323,
71646.2,12.599999999991269,-0.23,-0.32,0.86,-0.98,1.77,-0.45,43.03907759234624,5.763438512233767,2.6951089572544773,
71646.3,12.69999999999709,0.21,-0.00,1.07,-1.28,0.45,0.15,42.184529154655735,0.13154830223135391,2.245765991230903,
71646.4,12.799999999988358,0.17,-0.08,1.08,-1.15,1.10,0.02,43.62693663323154,5.812343577688488,2.699898212960904,
71646.5,12.89999999999418,0.14,-0.05,1.06,-1.15,1.28,-0.03,42.19802602018251,5.87894725799902,2.698889010738819,
71646.6,13.0,0.10,-0.07,1.06,-1.14,1.53,-0.14,42.08348250798643,0.48160700953165736,1.9497826212868363,
71646.7,13.099999999991269,-0.37,-0.68,0.59,0.24,0.50,-0.19,41.25688063826445,0.47546268857739865,1.9562043841637127,
71646.8,13.19999999999709,0.06,-0.10,1.02,0.11,0.19,0.06,41.76931170129573,6.0175404224956415,2.6752963474841183,
71646.9,13.299999999988358,0.02,-0.14,1.01,-1.09,1.68,-0.21,42.2547938108802,0.44632260993413403,1.9165400242118544,
71647.1,13.5,-0.54,-0.52,0.61,-0.04,-0.13,0.00,41.9976106463213,0.42345212019251444,1.8476691209486689,
71647.2,13.599999999991269,-0.53,-0.53,0.62,-0.04,-0.03,-0.01,42.77183185228335,0.42573550504038216,1.873735871831991,
71647.3,13.69999999999709,-0.48,-0.56,0.65,-0.01,-0.00,0.03,40.83694528242778,0.44411351970580837,1.8387008350652476,
71647.4,13.799999999988358,-0.55,-0.53,0.60,-0.00,0.02,0.00,42.11801870933627,0.41799855630960364,1.8510544441794263,
71647.5,13.89999999999418,-0.55,-0.53,0.60,-0.02,0.01,-0.00,42.70555116141226,0.41984003784268603,1.8668682989047687,
71647.6,14.0,-0.52,-0.54,0.63,0.05,0.20,-0.01,42.51795150286523,0.4166401332758505,1.8371163169903852,
71647.7,14.099999999991269,-0.50,-0.55,0.66,0.04,0.16,-0.00,43.4395810292871,0.4103189701574192,1.8617178828437544,
71647.8,14.19999999999709,-0.47,-0.56,0.65,-0.02,-0.01,-0.01,42.47373776817859,0.42086363424210427,1.8542802932933478,
71647.9,14.299999999988358,-0.47,-0.55,0.67,-0.00,-0.02,0.00,43.092905448577035,0.41340816866502456,1.8585567165869825,
71648.1,14.5,-0.46,-0.56,0.66,0.00,-0.00,0.00,42.471227907843684,0.42012034566868534,1.860679808421734,
71648.2,14.599999999991269,-0.47,-0.56,0.65,0.01,0.01,0.01,42.38741558528899,0.42693716094661904,1.90166062534437,
71648.3,14.69999999999709,-0.47,-0.55,0.66,-0.00,0.01,0.01,41.63269628549177,0.44152183108282017,1.8830566798036228,
71648.4,14.799999999988358,-0.46,-0.56,0.66,-0.00,0.02,-0.00,41.51832125700653,0.44743828915833184,1.8652669647988487,
71648.5,14.89999999999418,-0.47,-0.56,0.66,-0.02,-0.04,0.01,42.5920332926241,0.429550105892736,1.8398065655050415,
71648.6,15.0,-0.48,-0.56,0.66,0.01,0.01,-0.00,41.482543316436136,0.449252022684245,1.8594877756220245,
71648.7,15.099999999991269,-0.47,-0.56,0.66,0.00,0.02,-0.01,42.5920332926241,0.429550105892736,1.8398065655050415,
71648.8,15.19999999999709,-0.47,-0.55,0.64,0.00,0.01,0.01,42.86888265397175,0.39089950354258685,1.8737614630900765,
71648.9,15.299999999988358,-0.47,-0.56,0.65,0.00,0.01,0.01,40.709501347965436,0.4343624742269205,1.8661589999134143,
71649.1,15.5,-0.47,-0.56,0.66,-0.01,-0.02,-0.00,43.10922059142336,0.4680905793323888,1.864013204219325,
71649.2,15.599999999991269,-0.47,-0.56,0.66,-0.01,-0.00,-0.01,41.73188349451771,0.43788300336812075,1.8659685975932123,
71649.3,15.69999999999709,-0.48,-0.56,0.66,-0.01,0.01,-0.00,40.86150388813412,0.43212240781057343,1.8604276112128029,
71649.4,15.799999999988358,-0.47,-0.56,0.65,-0.01,0.01,0.00,39.87754882136063,0.41509095870308876,1.858623029222302,
71649.5,15.89999999999418,-0.47,-0.56,0.65,1.41,-0.60,1.18,41.956651439312935,0.3350518043364634,1.8424991985214296,
71649.6,16.0,-0.47,-0.56,0.65,-0.01,0.01,0.01,41.46054268819934,0.20503291199373205,1.9662051545373858,
71649.7,16.09999999999127,-0.46,-0.56,0.64,-0.01,-0.01,0.01,41.73778743536844,0.421333049282259,1.845453587439061,
71649.8,16.19999999999709,-0.11,0.23,0.64,1.68,-1.90,0.73,42.61959408534999,5.818245894677455,2.3217213173632754,
71649.9,16.29999999998836,-0.46,-0.55,0.66,-0.01,-0.02,-0.00,41.783198776541745,0.42269512575769186,1.8471369453879543,
71650.1,16.5,0.15,0.30,0.63,0.08,0.15,-0.45,44.311770445334275,5.351123142911266,2.3383791536593854,
71650.2,16.59999999999127,0.17,0.31,0.64,0.47,-0.25,-0.75,42.85409432014635,5.4234765825406965,2.3815184511829735,
71650.3,16.69999999999709,0.12,0.25,0.57,0.47,-0.02,-0.74,44.87866976638234,5.379291736309437,2.3887457362728894,
71650.4,16.79999999998836,0.11,0.24,0.54,0.43,0.04,-0.68,45.4952755788994,5.410823079967968,2.3438360468328563,
71650.5,16.89999999999418,0.11,0.25,0.53,0.38,0.08,-0.62,44.4739687907432,5.379750173213058,2.393206844752922,
71650.6,17.0,0.11,0.27,0.55,0.31,0.12,-0.57,42.89158891904099,5.392114169989068,2.4045679878654838,
71650.7,17.09999999999127,0.11,0.30,0.56,0.24,0.17,-0.54,44.25047005400056,5.338086615339256,2.4070524508969084,
71650.8,17.19999999999709,0.10,0.33,0.57,-0.14,-0.73,-0.17,43.834747632443374,5.358193474377152,2.3755518303762773,
71650.9,17.29999999998836,0.09,0.34,0.60,0.17,0.20,-0.52,43.182790553645326,5.376249878690492,2.3873094040364657,
71651.1,17.5,0.29,0.42,0.59,-0.46,0.70,-0.25,44.92036175277309,5.416752861720658,2.432074684182235,
71651.2,17.59999999999127,0.11,0.33,0.74,-0.51,0.65,-0.23,44.77066115214292,5.491305753059855,2.390669231608157,
71651.3,17.69999999999709,0.09,0.29,0.69,-0.49,0.67,-0.24,44.02386852606208,5.50867070660243,2.491716957595636,
71651.4,17.79999999998836,0.05,0.27,0.76,-0.73,0.06,0.49,45.07501636161655,5.42164299882036,2.4318250097869063,
71651.5,17.89999999999418,0.04,0.27,0.80,-0.83,0.48,0.34,44.198151545058984,5.434012722534873,2.427154468764952,
71651.6,18.0,-0.00,0.30,0.83,-1.23,0.76,0.34,42.51182188521212,5.672459342790377,2.5883443054313147,
71651.7,18.09999999999127,-0.03,0.36,0.82,-0.32,0.78,-0.24,44.25314791062891,5.434647245067007,2.4161342528138325,
71651.8,18.19999999999709,-0.04,0.38,0.78,-0.24,0.65,-0.13,41.614126207334934,6.11121870403248,2.5020549735869473,
71651.9,18.29999999998836,-0.04,0.40,0.77,-0.20,0.74,0.30,44.303604819472646,5.435308871916175,2.4077453280612047,
71652.1,18.5,-0.36,-0.45,0.92,-1.01,1.29,-0.47,41.75311964392601,0.23294298317258572,2.2743056198351166,
71652.2,18.59999999999127,-0.34,-0.46,0.94,-1.03,1.18,-0.42,41.63465263455431,0.24535485752639238,2.256071736179634,
71652.3,18.69999999999709,-0.35,-0.45,0.93,0.77,1.34,-0.03,41.54777130003485,0.4835846841391574,1.9507725130225815,
71652.4,18.79999999998836,-0.37,-0.43,0.91,-1.01,1.32,-0.51,41.56108035169442,0.25452277717241734,2.2426748931804994,
71652.5,18.89999999999418,-0.37,-0.44,0.89,-1.04,1.02,-0.39,41.71183165481947,0.2703704907538203,2.211689841961262,
71652.6,19.0,-0.36,-0.47,0.89,-1.01,0.64,-0.49,41.573970221762565,0.4344044740195776,1.826123385784309,
71652.7,19.09999999999127,-0.36,-0.47,0.88,-1.01,0.61,-0.51,41.823192130682706,0.27947237066777014,2.1937152881876343,
71652.8,19.19999999999709,-0.50,-0.54,0.66,0.02,0.04,0.01,41.79786956293347,0.4420443221945947,1.8328908522936966,
71652.9,19.29999999998836,-0.37,-0.48,0.88,-0.99,0.58,-0.54,41.25847549292145,0.2897533613307275,2.160078727025044,
71653.1,19.5,-0.50,-0.54,0.64,-0.04,-0.03,-0.01,42.26734082007053,0.4035122112996682,1.8233095684207103,
71653.2,19.59999999999127,-0.51,-0.54,0.65,-0.01,0.01,-0.00,41.9017350476087,0.39948012778221037,1.8282752491836314,
71653.3,19.69999999999709,-0.51,-0.54,0.65,-0.02,-0.00,-0.01,41.10977864207006,0.42471791016009136,1.8167633726269903,
71653.4,19.79999999998836,-0.51,-0.54,0.65,0.01,0.01,-0.00,41.866295513216826,0.41650341844605343,1.806329983771726,
71653.5,19.89999999999418,-0.51,-0.54,0.64,0.01,0.04,0.01,40.57640077680622,0.4209033358368562,1.8471179652295844,
71653.6,20.0,-0.52,-0.54,0.64,-0.02,0.00,-0.01,43.37222267765396,0.3981433270779023,1.8015567077504577,
71653.7,20.09999999999127,-0.51,-0.54,0.63,-0.02,0.01,-0.01,41.865942005405785,0.42735774574565927,1.7970079914485406,
71653.9,20.29999999998836,-0.51,-0.54,0.64,-0.03,-0.02,-0.00,41.90952874943836,0.4256493787548527,1.8200924822759863,
71654.1,20.5,-0.51,-0.54,0.63,0.01,0.02,0.00,43.03661348201087,0.4018596927981534,1.790037713597666,
71654.2,20.59999999999127,-0.51,-0.55,0.63,-0.01,-0.01,0.01,41.53349491675363,0.4283132774762498,1.8194161549736605,
71654.3,20.69999999999709,-0.51,-0.55,0.63,-0.00,-0.00,0.01,42.0660290495787,0.3944121595845085,1.8358583289397983,
71654.4,20.79999999998836,-0.51,-0.54,0.64,-0.00,-0.01,0.00,41.430784448281926,0.4082294702260245,1.8222877851036088,
71654.5,20.89999999999418,-0.51,-0.54,0.64,-0.00,-0.00,0.00,42.109339819094764,0.4024949521108743,1.844694463496493,
71654.6,21.0,-0.51,-0.55,0.65,0.00,-0.00,0.00,40.57827620784303,0.433717787567223,1.8068514501965462,
71654.7,21.09999999999127,-0.51,-0.54,0.64,0.01,0.01,0.00,40.16598187521376,0.4274591026330179,1.831159782424349,
71654.8,21.19999999999709,-0.51,-0.55,0.64,0.01,0.02,0.00,41.504715394759664,0.4069591003501342,1.774098682043874,
71654.9,21.29999999998836,-0.51,-0.54,0.64,-0.01,-0.01,-0.01,42.105336953882706,0.40960193120836186,1.8025268128675884,
71655.1,21.5,-0.49,-0.56,0.65,-0.04,-0.04,-0.02,40.41033778626454,0.42178424438933504,1.8549798340430856,
71655.2,21.59999999999127,-0.49,-0.56,0.65,-0.04,-0.04,-0.02,40.93801778298505,0.4339645800305482,1.8385297288907205,
71655.3,21.69999999999709,-0.49,-0.56,0.65,-0.05,-0.04,-0.02,41.57657273032494,0.367314051856351,1.7428948897550969,
71655.4,21.79999999998836,-0.50,-0.56,0.65,-0.06,-0.04,-0.02,41.33129322922282,0.4375207604844346,1.8359204557905924,
71655.5,21.89999999999418,-0.50,-0.55,0.66,1.91,-2.51,1.63,42.235647266260756,0.44600946900519045,1.8301112795003092,
71655.6,22.0,-0.49,-0.54,0.66,1.14,-2.14,0.55,41.27572046615298,0.42858811133882935,1.8498692983013445,
71655.7,22.09999999999127,-0.49,-0.55,0.68,0.68,-0.87,-0.23,43.37528558983791,5.5822014494576715,2.33327493737733,
71655.8,22.19999999999709,-0.49,-0.56,0.64,-0.07,-0.03,-0.02,40.522392574970205,0.4139023825262581,1.8665321390503402,
71655.9,22.29999999998836,-0.50,-0.57,0.73,-0.12,-0.02,-0.02,42.43478408098714,0.43696548962808385,1.8252123979346442,
71656.1,22.5,0.13,0.42,0.77,0.08,-0.42,-0.40,44.94838595544894,5.426024142634254,2.381585911838302,
71656.2,22.59999999999127,0.13,0.39,0.74,0.01,0.05,-0.42,44.53684878839094,5.454778050916284,2.384467975853345,
71656.3,22.69999999999709,0.13,0.40,0.74,-0.07,0.04,-0.23,43.96458347351878,5.436493892387905,2.397336629457281,
71656.4,22.79999999998836,0.14,0.41,0.80,-0.05,-0.10,-0.24,43.88203504852527,5.451745422061175,2.3853286193672463,
71656.5,22.89999999999418,0.13,0.38,0.81,-0.02,-0.14,-0.25,43.42052049434691,5.38147086184766,2.436252611944602,
71656.6,23.0,0.13,0.37,0.81,0.00,0.02,0.01,43.40940681465251,5.434916682375249,2.3698048094489277,
71656.7,23.09999999999127,0.13,0.40,0.82,-0.00,0.12,-0.04,44.25142031618872,5.348179978112903,2.448448516443029,
71656.8,23.19999999999709,0.14,0.42,0.83,0.10,-0.42,-0.40,43.03480800468384,5.420979585358257,2.3568452211799737,
71656.9,23.29999999998836,0.13,0.48,0.87,-0.05,0.10,-0.10,45.32561637749673,5.402022968353011,2.377641342362515,
71657.1,23.5,0.20,0.49,0.84,-0.04,0.02,-0.04,43.261983310985634,5.331767689854755,2.476458527645874,
71657.2,23.59999999999127,0.20,0.49,0.86,-0.04,0.01,-0.03,45.13377116971282,5.357505710138091,2.45896163528304,
71657.3,23.69999999999709,0.20,0.48,0.86,-0.04,0.01,-0.03,43.67523096676192,5.322932546235109,2.476638207743335,
71657.4,23.79999999998836,0.22,0.51,0.83,-0.04,0.01,-0.02,43.11710681388537,5.430683108162512,2.377131309003235,
71657.5,23.89999999999418,0.19,0.48,0.86,-0.05,0.01,-0.02,42.24958342989904,5.354203750135669,2.4759444348168462,
71657.6,24.0,0.24,0.18,0.54,-0.05,0.02,-0.02,43.767213756418165,5.287168235503151,2.4442564493184253,
71657.7,24.09999999999127,0.17,0.48,0.86,-0.05,0.02,-0.02,43.636302547305725,5.36134458053882,2.4597579369041003,
71657.8,24.19999999999709,0.17,0.49,0.85,-0.05,0.04,-0.03,43.65613015373671,5.362294193461641,2.4606527558206217,
71657.9,24.29999999998836,0.16,0.48,0.89,-0.07,-0.02,-0.01,42.000790468751894,0.039770277810411,2.322445194835214,
71658.1,24.5,-0.73,-0.96,0.94,-2.05,0.13,-1.62,41.29959927166364,0.5452000763383619,2.0713459480326364,
71658.2,24.59999999999127,-0.67,-1.03,0.47,-2.08,-0.40,-1.73,41.809641232615235,0.4331650233704092,1.9565192165880687,
71658.3,24.69999999999709,-0.41,-1.27,1.93,0.17,0.04,0.12,41.03301719347481,0.42502749449220734,1.9729402501474764,
71658.4,24.79999999998836,-0.75,-1.90,1.93,-1.34,-0.19,-0.18,42.091716524751035,0.481488561542292,1.9497047188889334,
71658.5,24.89999999999418,-0.56,-1.02,1.00,1.76,-1.70,-0.14,41.9117417915314,0.3902502830991945,1.9015225725345366,
71658.6,25.0,-0.46,-0.51,0.69,0.14,0.22,0.11,40.791104422410534,0.40042108702517876,1.9874963968811583,
71658.7,25.09999999999127,-1.21,-1.37,1.93,0.12,0.08,0.06,41.9823784462005,0.49586861716285563,1.94945975585307,
71658.8,25.19999999999709,-0.44,-0.42,1.39,0.06,0.02,0.06,41.93357127648443,0.3330252870435204,1.8890156782125456,
71658.9,25.29999999998836,-0.21,-0.13,0.98,0.06,0.03,0.08,41.623332399028314,0.5326365119613514,1.9705644744582627,
71659.1,25.5,-0.47,-0.50,0.70,0.09,0.07,0.01,41.357346384892736,0.3352664872828652,1.868217471997062,
71659.2,25.59999999999127,-0.49,-0.50,0.69,0.09,0.07,0.01,42.04602953906588,0.3253433533089594,1.9130220760836052,
71659.3,25.69999999999709,-0.49,-0.50,0.68,0.09,0.09,0.00,40.927641026572736,0.3241038731067718,1.8814293228280439,
71659.4,25.79999999998836,-0.49,-0.49,0.69,0.09,0.08,-0.01,43.19896989512597,0.34172187901561085,1.8660464512345578,
71659.5,25.89999999999418,-0.49,-0.49,0.69,0.08,0.07,-0.02,42.06174271235085,0.34618609158856795,1.8857608025105819,
71659.6,26.0,-0.51,-0.50,0.68,0.03,0.04,-0.07,42.003323678013864,0.36291397055741587,1.8719720273002924,
71659.7,26.09999999999127,-0.50,-0.49,0.69,0.02,0.03,-0.05,40.58688704495579,0.3560528660354073,1.9369185866902845,
71659.8,26.19999999999709,-0.47,-0.50,0.70,0.08,0.07,-0.02,40.38214209276175,0.3271379867328373,1.9045798403689502,
71659.9,26.29999999998836,-0.50,-0.49,0.68,0.08,0.06,0.01,40.47138495282809,0.3683358929983431,1.9438438467387762,
71660.1,26.5,-0.49,-0.51,0.68,-0.02,-0.01,0.01,42.493712476082855,0.4079407551050168,1.8797321167559848,
71660.2,26.59999999999127,-0.50,-0.50,0.68,-0.02,-0.01,0.01,42.7337115167873,0.39633618931742737,1.8708287761617803,
71660.3,26.69999999999709,-0.50,-0.51,0.69,-0.03,-0.01,0.00,41.95545375752717,0.38434854731653995,1.9051992708164684,
71660.4,26.79999999998836,-0.50,-0.51,0.69,-0.03,-0.01,0.01,42.023670710683994,0.38888503485077863,1.8733169720912168,
71660.5,26.89999999999418,-0.50,-0.51,0.68,-0.02,-0.00,0.01,41.83127777154315,0.3969748176993567,1.8832826125450381,
71660.6,27.0,-0.49,-0.51,0.67,-0.02,-0.02,-0.01,42.70503483197268,0.38232952914889845,1.87520644518094,
71660.7,27.09999999999127,-0.49,-0.51,0.67,-0.01,0.01,-0.00,41.818375147774454,0.3828729620213047,1.865339791327157,
71660.8,27.19999999999709,-0.49,-0.51,0.68,-0.02,-0.00,0.00,41.610913231987595,0.38317116743863383,1.8733917875690502,
71660.9,27.29999999998836,-0.49,-0.50,0.69,-0.01,0.01,0.00,42.985634809782674,0.37778109316176195,1.8848750763807363,
71661.1,27.5,-0.81,-0.54,1.18,1.41,-1.08,1.25,41.357694568242074,0.35268000233808844,1.8480441881114624,
71661.2,27.59999999999127,-0.65,-0.26,0.98,0.61,0.45,0.46,41.738464274575314,0.3613127405311614,1.855669497011909,
71661.3,27.69999999999709,-0.81,-0.58,1.15,1.06,-0.14,0.92,42.28438600713034,6.067009085681484,2.2098518997474588,
71661.4,27.79999999998836,-0.81,-0.53,1.17,1.15,-0.40,1.02,41.81511329651039,0.36291397055741587,1.8571265515128341,
71661.5,27.89999999999418,-0.85,-0.47,1.19,1.24,-0.66,1.12,43.86886253369239,5.570565244894824,2.383986916554955,
71661.6,28.0,-0.81,-0.57,1.16,1.32,-0.89,1.20,43.1384758655194,5.4908977401527155,2.4439663645130594,
71661.7,28.09999999999127,-0.81,-0.42,1.28,0.29,-0.16,-0.38,43.81528272189967,5.4420446567585685,2.420189172627661,
71661.8,28.19999999999709,-0.80,-0.42,1.28,0.16,0.31,-0.24,42.47544349385889,0.34148280644719164,1.8325115360896527,
71661.9,28.29999999998836,-0.78,-0.43,1.25,0.05,0.09,-0.28,43.68932821639628,5.501648128457534,2.3483586006045507,
71662.1,28.5,0.00,0.48,0.75,-0.09,-1.29,-0.00,44.534086944721345,5.465313927394997,2.33233129478242,
71662.2,28.59999999999127,0.27,0.46,0.94,-0.07,-0.55,0.15,44.8889852859251,5.426650759539899,2.4260705749189904,
71662.3,28.69999999999709,-0.02,0.50,0.71,-0.02,-0.02,-0.00,44.0542676706809,5.4003894194566655,2.4379163671936954,
71662.4,28.79999999998836,0.00,0.46,0.78,-0.09,-0.25,-0.12,45.24728610646168,5.490252302525709,2.3292173070597695,
71662.5,28.89999999999418,-0.06,0.47,0.62,0.03,-0.09,0.06,46.217237044202456,5.533478808393118,2.3186262107969746,
71662.6,29.0,0.00,0.47,0.77,0.04,-0.09,0.03,42.554949183379364,5.404681218294237,2.463479600463066,
71662.7,29.09999999999127,0.09,0.32,0.66,0.03,-0.09,0.04,43.918619058435794,5.456598931739582,2.435225985964918,
71662.8,29.19999999999709,0.05,0.32,0.51,-0.17,-1.12,0.20,45.110798042153945,5.524283850000532,2.3265905035945282,
71662.9,29.29999999998836,0.03,0.31,0.50,-1.13,0.11,1.15,45.010052210589585,5.445107821883675,2.385311620945151,
71663.1,29.5,0.19,0.16,0.69,-2.06,1.08,0.31,44.75130500890449,5.446840514947986,2.4995437839637664,
71663.2,29.59999999999127,0.18,0.16,0.71,-1.87,1.23,-0.46,43.8350670126099,5.454940331922298,2.5229124324900516,
71663.3,29.69999999999709,-0.37,-0.50,1.07,-1.47,2.38,-0.73,41.544359424595775,0.02608442514502995,2.474957796758554,
71663.4,29.79999999998836,0.08,0.04,0.77,-1.25,0.84,-0.57,42.42592957143072,5.469762794532207,2.5625522432660865,
71663.5,29.89999999999418,0.09,-0.02,0.79,-0.94,0.61,-0.33,43.534505854551746,5.5263508016208975,2.5909674464872277,
71663.6,30.0,0.17,0.14,0.71,-1.97,0.63,0.68,42.313442308561946,0.44648695683551515,2.023556915350743,
71663.7,30.09999999999127,0.15,0.13,0.72,-2.04,1.01,0.64,44.29515774890073,5.564021459554674,2.6076681030307336,
71663.8,30.19999999999709,0.13,0.02,0.87,-1.91,0.37,0.75,42.99491714144824,0.4182996383450271,1.9167668488017913,
71663.9,30.29999999998836,0.12,0.02,0.92,-1.93,0.47,0.73,43.808123675866334,5.629758965998825,2.6217061395707417,
71664.1,30.5,-0.46,-0.53,0.66,0.05,0.07,0.08,41.85288281588259,0.38482215460469216,1.9015001719499613,
71664.2,30.59999999999127,-0.46,-0.53,0.66,0.06,0.06,0.03,42.43303076613783,0.3876368762556823,1.9035346044231163,
71664.3,30.69999999999709,-0.46,-0.53,0.67,0.02,0.03,0.08,42.60585523141156,0.38391949055959085,1.9041194793943708,
71664.4,30.79999999998836,-0.47,-0.53,0.69,-0.01,-0.06,0.08,41.71792660236124,0.36628465481943095,1.8934979169978792,
71664.5,30.89999999999418,-0.46,-0.53,0.70,0.00,-0.05,0.08,42.04106801688082,0.3689375004199121,1.9211561668643335,
71664.6,31.0,-0.46,-0.52,0.71,0.01,-0.03,0.09,41.9361204691135,0.37694350249718134,1.9053594566791248,
71664.7,31.09999999999127,-0.45,-0.53,0.71,0.00,-0.00,0.00,41.92676710646791,0.3463469233158923,1.9145422242410886,
71664.8,31.19999999999709,-0.46,-0.53,0.70,0.02,-0.00,0.08,41.187031939677325,0.4161408907478446,1.8990934705549873,
71664.9,31.29999999998836,-0.46,-0.53,0.69,0.04,0.05,0.08,42.126990160703386,0.3784977848957649,1.908057971725032,
71665.1,31.5,-0.47,-0.52,0.68,-0.01,0.01,0.01,40.96530483226019,0.3206097465473429,1.896811890695941,
71665.2,31.59999999999127,-0.47,-0.52,0.68,-0.01,0.00,0.01,42.16474000868498,0.3848990774907456,1.9117676255647662,
71665.3,31.69999999999709,-0.47,-0.51,0.68,-0.02,-0.01,0.01,42.989937194650565,0.3685453338726163,1.889003155082899,
71665.4,31.79999999998836,-0.47,-0.52,0.69,-0.02,-0.01,0.01,41.89240026544194,0.3422736506767633,1.9140752995339656,
71665.5,31.89999999999418,-0.48,-0.52,0.68,-0.01,-0.02,0.01,41.79853705573916,0.35520061549952325,1.865483776410023,
71665.6,32.0,-0.48,-0.52,0.68,-0.01,-0.01,0.01,41.35808868891308,0.3487490357009554,1.9179253423880407,
71665.7,32.09999999999127,-0.47,-0.52,0.69,-0.01,0.01,0.01,42.86749934390855,0.38624025922728045,1.9059565858028535,
71665.8,32.19999999999709,-0.47,-0.52,0.68,-0.01,-0.01,0.01,42.982085803273904,0.3710941414247769,1.887838787762888,
71665.9,32.29999999998836,-0.47,-0.53,0.68,-0.01,0.01,0.01,43.74348980134072,0.3936058692223178,1.8898273985053389,
71666.1,32.5,-0.50,-0.56,0.77,-0.03,-0.22,-0.04,41.87641818494031,0.3954530875949704,1.9086379119793726,
71666.2,32.59999999999127,-0.37,-0.52,0.76,0.01,0.09,0.07,42.074122688417404,0.3714782274036515,1.9084986197685105,
71666.3,32.69999999999709,-0.30,-0.48,0.79,0.05,0.31,0.12,41.84044574332353,0.3934417775900279,1.9185837641009633,
71666.4,32.79999999998836,-0.38,-0.50,0.72,0.08,0.47,0.03,42.86888265397175,0.39089950354258685,1.8737614630900765,
71666.5,32.89999999999418,-0.48,-0.52,0.68,0.10,0.50,-0.00,42.318835050128676,0.3766264414584602,1.9227834128510286,
71666.6,33.0,-0.47,-0.52,0.65,0.08,0.36,0.04,43.03490908553194,0.352353242325361,1.9288085614265824,
71666.8,33.19999999999709,-0.48,-0.56,0.78,0.05,0.23,0.02,42.302077963145024,0.3670119196341525,1.908861279738475,
71666.9,33.29999999998836,-0.47,-0.56,0.77,-0.01,-0.13,-0.00,41.58389832615504,0.3825270510538696,1.887481844432937,
71667.1,33.5,-0.46,-0.53,0.69,-0.01,-0.01,0.01,41.2600242365416,0.4000759787071308,1.9236882693039765,
71667.2,33.59999999999127,-0.46,-0.52,0.69,0.01,0.01,-0.00,41.24025945602185,0.4047911792898831,1.890213790656693,
71667.3,33.69999999999709,-0.47,-0.52,0.69,-0.01,-0.01,0.01,41.49880239235826,0.39014795161936877,1.9126036360723615,
71667.4,33.79999999998836,-0.45,-0.52,0.70,-0.01,-0.00,0.02,41.3070756650722,0.3816479834280134,1.9037337162557142,
71667.5,33.89999999999418,-0.46,-0.52,0.70,-0.01,0.00,0.01,41.62933581021922,0.3814533465262692,1.91276290314181,
71667.6,34.0,-0.47,-0.52,0.68,-0.01,0.01,0.01,42.36680068166583,0.3735665723614822,1.9158386839960646,
71667.7,34.09999999999127,-0.47,-0.53,0.68,-0.01,0.02,0.01,41.92807531952784,0.3765122251462556,1.911492834436019,
71667.8,34.19999999999709,-0.47,-0.52,0.68,-0.00,0.03,0.01,42.4306504781626,0.39496387105126196,1.9055495379126663,
71667.9,34.29999999998836,-0.47,-0.52,0.69,-0.01,0.02,0.01,41.81168377379701,0.36370912077869827,1.8990579091343356,
71668.1,34.5,-0.94,-0.39,1.22,1.76,-0.90,1.87,41.51976998972899,0.2607473566326086,1.8429304319689348,
71668.2,34.59999999999127,-0.82,-0.71,1.22,0.99,0.76,0.74,41.801391125176686,0.3950379723237279,1.8200105244705749,
71668.3,34.69999999999709,-0.91,-0.66,1.26,1.18,0.89,0.91,43.780224988001144,5.997014090639508,2.1044439292149555,
71668.4,34.79999999998836,-0.96,-0.61,1.23,1.31,0.94,1.05,41.78900094522481,0.3939955899878598,1.8087433124544332,
71668.5,34.89999999999418,-0.98,-0.55,1.20,1.40,0.83,1.22,44.759238152587,5.56538311678697,2.3439604504607363,
71668.6,35.0,-0.79,-0.74,1.21,0.55,-0.74,-0.51,42.807360348426066,5.475693889120789,2.3621796966777344,
71668.7,35.09999999999127,0.15,0.37,0.76,0.10,-0.30,-0.33,41.989059289295824,0.40042665081432294,1.880318085723121,
71668.8,35.19999999999709,-0.98,-0.44,1.22,0.82,0.73,0.62,43.08678799817874,0.31321537379417413,1.809318935923323,
71668.9,35.29999999998836,-0.96,-0.39,1.22,1.48,0.55,1.40,40.88538247344643,0.2907226880174629,1.8638283172157626,
71669.1,35.5,-0.10,0.21,0.93,-0.08,-0.38,-0.04,44.66806577410757,5.520834653721016,2.335973601622751,
71669.2,35.59999999999127,-0.03,0.48,0.83,0.07,0.23,0.02,44.44242455132258,5.459361721732381,2.348727131082709,
71669.3,35.69999999999709,-0.02,0.50,0.84,0.04,0.04,0.12,43.01407327840506,5.491406191189207,2.3358338012368676,
71669.4,35.79999999998836,-0.01,0.53,0.81,0.04,-0.01,0.12,42.103359723423495,5.507779839285352,2.333884042217607,
71669.5,35.89999999999418,0.05,0.54,0.77,0.03,-0.04,0.12,44.540536593085626,5.491647055795863,2.2938061392277764,
71669.6,36.0,0.08,0.53,0.71,0.00,-0.09,0.10,44.57985307288484,5.5035897865853505,2.3114144679912734,
71669.7,36.09999999999127,0.15,0.48,0.62,-0.07,-0.28,-0.00,45.01959795466858,5.540567457861976,2.2891656053676885,
71669.8,36.19999999999709,0.17,0.44,0.60,-1.18,-0.48,0.77,44.235987611898075,5.514322154834555,2.3716742473940258,
71669.9,36.29999999998836,0.15,0.38,0.79,-1.44,0.12,0.78,44.56364998516167,5.523758481820629,2.429001782550334,
71670.1,36.5,-0.18,-0.11,0.92,-1.47,0.97,0.27,41.0018462998924,5.914481035830484,2.4756035335206406,
71670.2,36.59999999999127,0.04,0.03,0.90,-1.46,1.28,-0.01,43.40483383218971,5.665499674661761,2.542263973558421,
71670.3,36.69999999999709,0.08,0.08,0.83,-1.44,1.39,-0.12,41.986576426281765,0.15258428633482443,2.1530859341898387,
71670.4,36.79999999998836,0.07,0.07,0.86,-1.42,1.49,-0.19,42.86672952302287,5.706975124875787,2.5073484943081836,
71670.5,36.89999999999418,0.05,0.05,0.87,-0.46,0.53,-0.75,42.319184774756714,0.4456118810306173,1.9736235028692024,
71670.6,37.0,0.05,0.04,0.89,0.40,0.91,0.02,42.00801947247692,5.775130627779846,2.5224362293296916,
71670.7,37.09999999999127,-0.04,-0.04,0.87,-1.40,1.62,-0.26,41.20175238991662,5.85196907111068,2.536228843467053,
71670.8,37.19999999999709,-0.05,-0.04,0.88,-1.39,1.83,-0.43,41.02376018845664,5.906824290880851,2.483644803939626,
71670.9,37.29999999998836,-0.14,-0.08,0.89,-1.40,1.97,-0.70,41.2951885817222,0.4157527702124507,1.7952195495792311,
71671.1,37.5,-0.53,-0.54,0.63,-0.01,0.04,-0.02,42.93696426157769,0.44281728896458905,1.7943747364337346,
71671.2,37.59999999999127,-0.51,-0.53,0.63,-0.01,-0.05,-0.01,41.958156537197866,0.41673881445506744,1.7838045519324244,
71671.3,37.69999999999709,-0.51,-0.53,0.64,-0.01,0.01,-0.01,43.85556635137665,0.4184871416625344,1.820324721572722,
71671.4,37.79999999998836,-0.51,-0.53,0.63,-0.01,0.02,-0.02,41.475924341719015,0.4442612769291659,1.7469889392065086,
71671.5,37.89999999999418,-0.52,-0.53,0.64,-0.00,0.02,-0.02,41.67856283510745,0.4256493787548527,1.7973041055131478,
71671.6,38.0,-0.53,-0.54,0.64,-0.01,0.01,-0.03,42.823560104223,0.4482362208709717,1.7911464273282327,
71671.7,38.09999999999127,-0.52,-0.52,0.64,-0.01,0.01,-0.03,41.485569780346516,0.43325643656046325,1.8077890071046292,
71671.8,38.19999999999709,-0.53,-0.54,0.64,-0.01,0.02,-0.03,41.035894044117036,0.44818776955527573,1.732579645971975,
71671.9,38.29999999998836,-0.53,-0.54,0.63,-0.01,0.03,-0.02,40.44953028157435,0.3902502830991945,1.7711474430553833,
71672.1,38.5,-0.52,-0.55,0.62,-0.02,-0.02,0.00,41.124117011797345,0.43788300336812075,1.8126665417630863,
71672.2,38.59999999999127,-0.52,-0.55,0.62,-0.02,-0.01,0.00,41.74055222442559,0.39833143054273307,1.801881375846134,
71672.3,38.69999999999709,-0.52,-0.55,0.62,-0.00,0.00,0.01,42.03538628346361,0.4129997167206941,1.8127090262316299,
71672.4,38.79999999998836,-0.52,-0.55,0.62,-0.02,-0.01,0.00,41.42350057636365,0.38087257685796566,1.7745028768959463,
71672.5,38.89999999999418,-0.52,-0.55,0.62,-0.02,-0.00,0.00,42.21221268779925,0.39804764007565363,1.8241359393550654,
71672.6,39.0,-0.52,-0.55,0.63,-0.02,-0.01,-0.00,42.03610115127234,0.4240285142070852,1.8178536540812853,
71672.7,39.09999999999127,-0.51,-0.56,0.61,-0.05,0.02,0.01,42.80198476706425,0.42079665541792655,1.8232233211129227,
71672.8,39.19999999999709,-0.51,-0.55,0.63,-0.02,-0.01,-0.00,41.24684109116721,0.43246013981618303,1.8159292242296967,
71672.9,39.29999999998836,-0.52,-0.55,0.62,-0.00,0.00,0.01,41.216556139493264,0.4335604725467743,1.8153627860495527,
71673.1,39.5,-0.52,-0.55,0.63,-0.00,0.00,0.01,42.52217421534322,0.431578840857166,1.8125487990175932,
71673.2,39.59999999999127,-0.51,-0.55,0.64,-0.00,0.03,-0.01,41.739801149502384,0.43302477379549814,1.788860732151379,
71673.3,39.69999999999709,-0.52,-0.55,0.63,-0.00,0.01,-0.01,41.00478630599116,0.44355601564856545,1.8091158723589316,
71673.4,39.79999999998836,-0.51,-0.56,0.63,-0.01,-0.02,0.01,41.72087726786195,0.42881620558519534,1.7769470799398528,
71673.5,39.89999999999418,-0.52,-0.56,0.62,-0.01,-0.00,-0.01,40.34816228776721,0.460425896525229,1.8425422629003676,
71673.6,40.0,-0.51,-0.55,0.61,-0.00,0.00,-0.00,41.294844714564555,0.4628693125157501,1.7991975060924743,
71673.7,40.09999999999127,-0.51,-0.55,0.62,-0.01,-0.01,0.01,41.59188743012272,0.4811626184271626,1.7896488367541865,
71673.8,40.19999999999709,-0.51,-0.55,0.63,-0.00,-0.01,0.01,41.430912372285505,0.43365660414392826,1.8083559908850135,
71673.9,40.29999999998836,-0.51,-0.56,0.62,1.66,-0.16,1.72,41.387825504609445,0.39496387105126196,1.8233029957834428,
71674.1,40.5,-0.82,-0.22,0.94,2.10,-1.55,2.27,42.60605356049771,0.11138886887685272,1.866844495457119,
71674.2,40.59999999999127,-0.76,-0.18,0.91,2.12,-1.57,2.28,42.93317947694999,0.04880821751857398,1.9175328973128771,
71674.3,40.69999999999709,-0.68,-0.10,0.91,2.12,-1.99,2.27,42.96721191792644,6.278226260303293,1.9229436631364767,
71674.4,40.79999999998836,-0.67,-0.08,0.92,2.12,-1.98,2.24,44.504606503147514,5.424422394353786,2.3445205528809514,
71674.5,40.89999999999418,-0.63,-0.04,0.91,2.10,-1.91,2.19,43.05681014659586,5.436996597884171,2.3507646891656813,
71674.6,41.0,-0.58,-0.00,0.86,2.09,-1.85,2.16,42.64803512472761,6.247378974100205,1.9286975516827074,
71674.7,41.09999999999127,-0.83,-0.23,0.96,-0.00,0.30,-0.07,42.1644518522416,5.402744555200293,2.366485169499302,
71674.8,41.19999999999709,-0.54,0.04,0.85,2.00,-1.67,2.05,40.57675196464103,6.188007088873322,1.9515727320341127,
71674.9,41.29999999998836,0.15,0.48,0.84,0.21,-0.26,0.17,45.83875325529698,5.440958931735991,2.345976122855796,
71675.1,41.5,0.06,0.53,0.95,0.04,-0.10,-0.10,44.145383677118495,5.438395171975246,2.3525012120617825,
71675.2,41.59999999999127,0.04,0.52,0.93,-0.11,0.07,-0.16,43.16783061493825,5.436620396190359,2.3404527943272235,
71675.3,41.69999999999709,0.02,0.52,0.89,0.06,1.48,0.12,43.670852979991125,5.495239083510248,2.367595354992363,
71675.4,41.79999999998836,0.02,0.52,0.89,0.05,-0.24,-0.00,44.626389054011526,5.512989702461686,2.2441639092196914,
71675.5,41.89999999999418,0.02,0.52,0.88,0.07,-0.13,-0.02,44.70799704750818,5.394271231491238,2.3669017055944623,
71675.6,42.0,0.05,0.52,0.84,0.10,-0.04,-0.06,45.605624653106105,5.417702327274282,2.3612293057641227,
71675.7,42.09999999999127,0.05,0.52,0.82,0.09,-0.04,-0.07,43.539116895040486,5.507576356282404,2.4159346957743186,
71675.8,42.19999999999709,0.06,0.53,0.81,0.07,-0.06,-0.07,44.656048862388175,5.416097992189661,2.3572529552697015,
71675.9,42.29999999998836,0.08,0.54,0.93,-1.29,2.42,-1.01,40.45396643099413,6.077385416487776,2.369027490742175,
71676.1,42.5,-0.59,-0.38,1.05,-1.11,0.00,-0.91,41.84528288827786,0.1658456932024248,2.017580730885785,
71676.2,42.59999999999127,-0.59,-0.39,1.03,-0.64,0.77,-0.94,42.12759784274437,0.08743701589383314,2.1188607416447636,
71676.3,42.69999999999709,-0.59,-0.41,1.00,0.37,-0.33,-0.28,41.99364118530328,0.08206396718334041,2.100818800254025,
71676.4,42.79999999998836,-0.59,-0.43,1.00,-1.28,1.80,-0.94,40.72356811479073,0.3967821279504606,1.86092458871973,
71676.5,42.89999999999418,-0.60,-0.46,0.99,-1.21,0.85,-0.93,41.7583237211457,0.07188899530824573,2.0653466599348915,
71676.6,43.0,-0.59,-0.37,1.07,-1.20,0.71,-0.92,41.98627156583447,0.4010141948489762,1.8554301973679137,
71676.7,43.09999999999127,-0.59,-0.38,1.07,-1.18,0.44,-0.90,42.35438702188948,0.05326776871718101,2.1558510877094443,
71676.8,43.19999999999709,-0.55,-0.50,0.98,-1.28,1.97,-0.94,42.505022056222955,0.13556310219413487,2.0258132113222427,
71676.9,43.29999999998836,-0.51,-0.55,0.64,0.01,0.03,0.01,41.326297922751316,0.4144432480544265,1.796288850329717,
71677.1,43.5,-0.51,-0.55,0.63,-0.00,0.01,-0.01,41.3362927703973,0.4102953795249539,1.7910243051689265,
71677.2,43.59999999999127,-0.51,-0.55,0.64,-0.01,0.01,-0.01,42.21791681265195,0.39554626397759346,1.8356180555209487,
71677.3,43.69999999999709,-0.51,-0.56,0.64,-0.01,-0.00,0.00,40.672178451614805,0.407059244293443,1.8237801790229249,
71677.4,43.79999999998836,-0.51,-0.55,0.63,-0.00,-0.00,-0.00,41.69197644631398,0.39172481307931806,1.821421191935706,
71677.5,43.89999999999418,-0.51,-0.55,0.63,-0.01,0.01,-0.01,41.95312741620104,0.39218239684923345,1.8440075482641232,
71677.6,44.0,-0.51,-0.55,0.63,-0.01,0.01,-0.01,42.75103390562619,0.4189385799873005,1.8387813471044463,
71677.7,44.09999999999127,-0.51,-0.55,0.64,-0.01,0.00,-0.01,41.856157253144964,0.38476244953287636,1.818691623197034,
71677.8,44.19999999999709,-0.50,-0.55,0.63,-0.00,0.01,-0.01,42.78811984651814,0.40280252056905674,1.8187236820601531,
71677.9,44.29999999998836,-0.51,-0.55,0.64,-0.00,0.01,-0.01,41.72731838975517,0.4200048026583137,1.8150250561247905,
71678.1,44.5,-0.50,-0.55,0.64,-0.01,0.01,0.00,41.57191840653977,0.41326636150249463,1.8341000698802512,
71678.2,44.59999999999127,-0.50,-0.55,0.64,-0.02,0.02,0.00,41.47847393528359,0.4082294702260245,1.826724391203858,
71678.3,44.69999999999709,-0.50,-0.56,0.64,-0.02,0.01,0.01,41.15393176842281,0.39496387105126196,1.8002430474702789,
71678.4,44.79999999998836,-0.51,-0.55,0.63,-0.01,0.01,-0.00,41.480241079338,0.38909263087955176,1.8172554140371793,
71678.5,44.89999999999418,-0.50,-0.56,0.63,-0.01,-0.01,0.01,42.88745620808024,0.4049547585771916,1.806370747088182,
71678.6,45.0,-0.51,-0.55,0.64,-0.01,-0.00,0.00,40.97507901151626,0.41692108241887105,1.8175887500745864,
71678.7,45.09999999999127,-0.50,-0.56,0.63,-0.01,0.00,0.00,42.15830523159108,0.4146145964465212,1.8266730303568042,
71678.8,45.19999999999709,-0.50,-0.55,0.63,-0.01,0.01,0.00,41.5392007626531,0.38520723657702444,1.8164019532791145,
71678.9,45.29999999998836,-0.56,-0.63,0.89,-0.01,0.01,0.00,41.397952847936814,0.40329366625361474,1.805815627952239,
71679.1,45.5,-1.06,-0.68,1.17,1.32,0.49,1.28,41.92214689158941,0.3854873176261752,1.7798431200510323,
71679.2,45.59999999999127,-1.08,-0.65,1.16,2.28,-2.24,2.23,41.84186539818701,0.37642161791290446,1.7817164196583746,
71679.3,45.69999999999709,-0.32,0.25,0.65,1.46,-2.67,0.92,44.07711083998134,5.912453556767793,2.0581284452202624,
71679.4,45.79999999998836,-1.08,-0.60,1.18,0.98,-1.40,-0.18,43.06820637082534,5.608261281838343,2.2271029057370377,
71679.5,45.89999999999418,-1.06,-0.54,1.22,0.89,-1.20,-0.42,41.49162204590223,0.3286222250884899,1.7901863391305821,
71679.6,46.0,-0.98,-0.73,1.15,1.37,0.43,1.38,42.219343907739734,5.402068074690421,2.2854909304054623,
71679.7,46.09999999999127,-1.02,-0.71,1.16,1.13,0.55,1.05,40.21919069300127,0.2614340398499133,1.7598911887182582,
71679.8,46.19999999999709,-1.06,-0.50,1.25,1.91,-0.72,2.30,45.86127342322714,5.42699270064964,2.326149354999782,
71679.9,46.29999999998836,-1.05,-0.47,1.18,1.20,0.54,1.12,39.95621228294794,0.2315882669674959,1.7751886729869664,
71680.1,46.5,0.17,0.52,0.82,0.20,-0.04,0.36,43.67858743137191,5.41376515850269,2.3631662894034013,
71680.2,46.59999999999127,0.13,0.53,0.84,0.23,-0.55,0.21,44.60199435002879,5.443287712232962,2.33522053425681,
71680.3,46.69999999999709,0.11,0.53,0.86,0.13,-0.28,0.11,43.93450807736442,5.292353320401333,2.389378383693428,
71680.4,46.79999999998836,0.08,0.51,0.86,0.06,-0.48,0.07,43.824444092309946,5.402098129799657,2.328858921030718,
71680.5,46.89999999999418,0.06,0.48,0.88,0.05,-0.58,0.06,43.37624349802551,5.3940318047311315,2.3227854209357197,
71680.6,47.0,-0.04,0.29,0.48,-0.19,1.01,1.22,43.91262802429388,5.418659544266866,2.347826526131466,
71680.7,47.09999999999127,0.06,0.46,0.89,-1.20,0.45,1.18,43.12730689482013,5.412707601594143,2.332674940051498,
71680.8,47.19999999999709,0.19,0.51,0.84,0.05,-0.67,0.06,41.96066848847859,5.426324477149468,2.371455327788344,
71680.9,47.29999999998836,0.19,0.53,0.87,0.03,-0.82,0.09,43.09522711391599,5.415268189349156,2.334027402094533,
71681.1,47.5,-0.74,-0.26,1.01,-1.31,1.56,-1.93,42.480769767036946,6.166822818755183,2.1637839785193833,
71681.2,47.59999999999127,-0.76,-0.25,1.04,-1.20,2.95,-1.92,40.98319777664988,0.31256487674246725,1.7974584093267525,
71681.3,47.69999999999709,-0.78,-0.27,0.98,-1.06,2.83,-2.04,42.30653022879565,6.207167689987348,2.095944299166362,
71681.4,47.79999999998836,-0.81,-0.33,0.90,-1.01,2.69,-2.08,41.53058029934087,0.4885614384200388,1.8401090545202612,
71681.5,47.89999999999418,-0.82,-0.37,0.82,-1.00,2.51,-2.10,41.85069891889501,0.503656871687223,1.7819155923554515,
71681.6,48.0,-0.83,-0.40,0.78,0.07,0.11,0.15,42.3098357359137,6.228339456216211,2.0575283527068216,
71681.7,48.09999999999127,-0.70,-0.27,1.06,-0.02,-0.01,0.04,42.02849747492765,0.4774883158183726,1.8215818134267312,
71681.8,48.19999999999709,-0.72,-0.25,1.07,0.03,0.09,0.01,42.149774613869525,0.011588458819546264,1.97018090419724,
71681.9,48.29999999998836,-0.87,-0.38,0.86,-1.01,2.40,-2.09,42.106484061246434,0.021546177768072033,1.958014543144043,
71682.1,48.5,-0.50,-0.58,0.61,-0.02,0.01,0.01,40.55042663154113,0.4832174601502011,1.794858917818696,
71682.2,48.59999999999127,-0.50,-0.59,0.61,-0.03,-0.02,0.00,41.311748934171256,0.46807971294382206,1.785703281715299,
71682.3,48.69999999999709,-0.50,-0.58,0.62,-0.03,0.00,0.00,40.434230547890984,0.4852432560355194,1.7795595568034526,
71682.4,48.79999999998836,-0.50,-0.59,0.61,-0.03,0.01,0.01,40.434230547890984,0.4852432560355194,1.7795595568034526,
71682.5,48.89999999999418,-0.50,-0.59,0.61,-0.03,0.01,0.01,42.368784499912195,0.4862701428152434,1.7937933053678474,
71682.6,49.0,-0.50,-0.60,0.60,-0.01,-0.01,0.01,41.441870131546914,0.4939913114855887,1.7623528327040041,
71682.7,49.09999999999127,-0.50,-0.58,0.60,0.00,0.02,0.01,40.17455538024036,0.4834357446160321,1.7766043571911652,
71682.8,49.19999999999709,-0.49,-0.59,0.61,0.01,0.01,0.01,42.15849380611218,0.4973488192292137,1.7905476311216109,
71682.9,49.29999999998836,-0.50,-0.59,0.60,-0.02,0.01,0.01,40.85330586378537,0.505902887266907,1.797689274569349,
71683.1,49.5,-0.51,-0.59,0.60,-0.01,0.01,0.00,41.08501429962025,0.4925605729763231,1.7762050559916813,
71683.2,49.59999999999127,-0.51,-0.59,0.60,-0.00,0.01,0.01,41.26525172587706,0.44556720416107387,1.8118228708941186,
71683.3,49.69999999999709,-0.49,-0.59,0.61,-0.00,0.01,0.01,41.674972105569545,0.49005779703074703,1.7532101158143953,
71683.4,49.79999999998836,-0.50,-0.59,0.59,-0.00,0.00,0.01,42.972394627248775,0.4529341120512433,1.7654023002098518,
71683.5,49.89999999999418,-0.50,-0.59,0.60,-0.01,-0.01,0.00,41.803121892987846,0.4651698433366124,1.7504560540710772,
71683.6,50.0,-0.51,-0.59,0.61,-0.02,-0.01,-0.00,41.75154727671778,0.48265755650572073,1.7687255621037845,
71683.7,50.09999999999127,-0.51,-0.59,0.61,-0.00,-0.00,0.01,41.88047038895337,0.46990370123688874,1.8040393939683845,
71683.8,50.19999999999709,-0.51,-0.60,0.60,-0.00,0.01,0.00,41.639424827919996,0.4660490889383538,1.7504377919112732,
71683.9,50.29999999998836,-0.50,-0.60,0.59,-0.00,0.01,0.00,41.218438835065065,0.49042297040970756,1.767360620181688,
71684.1,50.5,-0.49,-0.59,0.60,-0.01,0.00,0.01,40.9492441932693,0.4774598084501126,1.7686698811710442,
71684.2,50.59999999999127,-0.50,-0.60,0.60,-0.01,-0.00,0.01,41.48291937653376,0.4939246975293556,1.7744531429838555,
71684.3,50.69999999999709,-0.49,-0.60,0.60,-0.01,-0.02,0.01,40.8630762424955,0.4899281585540472,1.731782197368471,
71684.4,50.79999999998836,-0.49,-0.60,0.60,-0.01,-0.02,0.01,41.72937694238916,0.5013201462383237,1.7769044850629276,
71684.5,50.89999999999418,-0.49,-0.60,0.61,-0.01,-0.02,0.01,42.7668002076377,0.4640757828132185,1.7861748092647576,
71684.6,51.0,-0.35,0.10,0.71,-0.01,-0.01,0.01,43.05056910192942,6.018712615581381,2.0374899785405503,
71684.7,51.09999999999127,-0.16,0.24,0.59,1.20,-1.07,0.40,43.45827769251791,5.64774132036259,2.2610108747876074,
71684.8,51.19999999999709,-0.49,-0.60,0.61,0.65,-0.86,-0.31,42.86502653679337,0.46087043177836967,1.7868675802638572,
71684.9,51.29999999998836,-0.50,-0.60,0.60,0.21,-1.53,-0.39,43.45509521333488,5.455510438032514,2.280629485922975,
71685.1,51.5,0.16,0.39,0.72,0.08,-0.05,-0.42,44.00434751249017,5.365851199294137,2.3560089896573575,
71685.2,51.59999999999127,0.13,0.39,0.72,0.07,-0.03,-0.42,44.11682332172161,5.359482496976858,2.3744643200701727,
71685.3,51.69999999999709,0.12,0.40,0.73,0.03,0.01,-0.36,43.669495073792646,5.36655880977775,2.3725537771267278,
71685.4,51.79999999998836,0.12,0.43,0.75,0.02,0.04,-0.33,43.32859679241875,5.391522280891059,2.3810525306429158,
71685.5,51.89999999999418,0.12,0.46,0.78,0.02,0.04,-0.32,43.057883134218294,5.383323220866023,2.3455267717851003,
71685.6,52.0,0.11,0.47,0.78,0.01,-0.03,-0.32,43.44680540615156,5.369192354476878,2.352895055436857,
71685.7,52.09999999999127,0.04,0.28,0.69,-0.04,0.74,0.14,43.73511289570429,5.365435553038345,2.373634373809943,
71685.8,52.19999999999709,0.12,0.46,0.75,-0.11,0.06,1.04,43.19906248982725,5.521401291824013,2.3161822670726293,
71685.9,52.29999999998836,0.17,0.40,0.72,-1.02,-0.38,1.69,44.35700733818728,5.337481316219636,2.368864202445681,
71686.1,52.5,0.23,0.17,0.61,-1.93,0.84,1.11,43.25887423408057,5.3080550847829855,2.495126934565462,
71686.2,52.59999999999127,0.22,0.13,0.68,-2.11,1.15,0.87,43.27692918865663,5.309349433263831,2.496877739700512,
71686.3,52.69999999999709,0.20,0.11,0.70,-2.15,1.25,0.77,42.15580268480248,0.053695721978282054,2.2216273899163825,
71686.4,52.79999999998836,-0.46,-0.70,1.20,-2.18,1.36,0.61,43.36013837616296,5.315235588235804,2.504727994968513,
71686.5,52.89999999999418,-0.37,-0.66,0.76,-2.20,1.44,0.45,42.67975398242122,5.384402714300168,2.526605252031303,
71686.6,53.0,0.19,0.09,0.70,-2.20,1.47,0.40,41.709742267244955,0.5390539638657887,1.841659656380698,
71686.7,53.09999999999127,0.16,0.02,0.74,0.05,-0.02,0.05,42.52393208535636,0.5322188472886891,1.84024810886142,
71686.8,53.19999999999709,0.16,0.01,0.77,-2.20,1.55,0.28,42.1577240846799,5.450345908623599,2.5443595003791657,
71686.9,53.29999999998836,0.13,-0.01,0.83,0.18,0.58,-0.00,41.65329758854634,5.574366653369026,2.56946285901777,
71687.1,53.5,-0.46,-0.62,0.61,0.01,-0.01,-0.00,41.164258768985505,0.4821867558230439,1.804427451737809,
71687.2,53.59999999999127,-0.45,-0.62,0.62,-0.01,-0.07,0.02,40.803219235741686,0.4852432560355194,1.8186499919686736,
71687.3,53.69999999999709,-0.44,-0.63,0.62,-0.02,-0.09,0.03,41.730606274052626,0.4900004699942638,1.7702928747088045,
71687.4,53.79999999998836,-0.42,-0.63,0.62,-0.02,-0.08,0.03,41.28968151972112,0.4888708582829661,1.7529612137639343,
71687.5,53.89999999999418,-0.42,-0.62,0.62,-0.02,-0.07,0.02,41.5083858997191,0.49005779703074703,1.72999005794467,
71687.6,54.0,-0.46,-0.64,0.60,0.00,-0.01,0.00,41.4397828179637,0.48766767428296376,1.77343619385478,
71687.7,54.09999999999127,-0.42,-0.62,0.62,-0.02,-0.05,0.01,41.1749559805472,0.48169902323560454,1.821376716018537,
71687.8,54.19999999999709,-0.43,-0.62,0.63,-0.01,0.00,-0.00,41.90363826686175,0.5505699516001317,1.7721365246189007,
71687.9,54.29999999998836,-0.47,-0.62,0.61,-0.00,0.04,-0.00,41.16819767733341,0.4813806248387964,1.8246797157837855,
71688.1,54.5,-0.47,-0.63,0.59,-0.02,0.01,0.02,41.2638873592879,0.47937864007186676,1.7792636261771244,
71688.2,54.59999999999127,-0.46,-0.63,0.59,-0.01,0.02,0.03,42.42730370881468,0.5351241666779718,1.785271486229224,
71688.3,54.69999999999709,-0.46,-0.63,0.59,-0.01,-0.01,0.02,42.27618951608577,0.5434388896968927,1.7672019305966364,
71688.4,54.79999999998836,-0.46,-0.63,0.59,-0.01,-0.01,0.02,41.233959305407474,0.509196960030389,1.7876048402452438,
71688.5,54.89999999999418,-0.46,-0.63,0.59,-0.01,-0.01,0.02,42.07799068396684,0.49145745371089045,1.7785716818600499,
71688.6,55.0,-0.46,-0.63,0.59,-0.01,-0.01,0.02,41.27884930566743,0.5197907407342658,1.776711478453922,
71688.7,55.09999999999127,-0.46,-0.64,0.60,-0.02,0.01,0.01,42.297178392890466,0.5332746997001518,1.7620436266071737,
71688.8,55.19999999999709,-0.47,-0.64,0.60,-0.00,-0.00,0.02,40.57585119255047,0.5361899182415204,1.7745401220078676,
71688.9,55.29999999998836,-0.46,-0.64,0.59,-0.00,0.01,0.02,42.97533478636321,0.505444322194838,1.7514147040942365,
71689.1,55.5,-0.49,-0.62,0.57,0.01,0.00,0.01,42.507687540020335,0.5125596151500008,1.775720176316417,
71689.2,55.59999999999127,-0.48,-0.62,0.57,0.00,-0.00,-0.00,41.62487357338158,0.536332731364816,1.7813584531436586,
71689.3,55.69999999999709,-0.48,-0.62,0.57,-0.02,0.00,0.02,40.501124675742034,0.5099496002407432,1.7915922198932015,
71689.4,55.79999999998836,-0.48,-0.62,0.58,-0.03,1.02,0.46,42.919005114284744,0.505444322194838,1.7440800206199423,
71689.5,55.89999999999418,-0.49,-0.62,0.59,0.00,-0.00,0.01,41.150585658043795,0.4860194742303882,1.7880511443862337,
71689.6,56.0,-0.49,-0.62,0.58,-0.01,-0.02,0.01,41.765480962153426,0.4644146480789549,1.7848024617022005,
71689.7,56.09999999999127,-0.49,-0.62,0.57,-0.01,-0.02,0.01,42.802359748032586,6.041510077057482,1.852530693485901,
71689.8,56.19999999999709,-0.48,-0.62,0.57,-0.01,-0.02,0.01,41.039275091063686,0.4992276929550931,1.7697212571353889,
71689.9,56.29999999998836,-0.49,-0.62,0.60,0.01,0.01,0.01,40.56002095660209,0.5246243176071864,1.7582832368653867,
71690.1,56.5,0.13,0.30,0.66,0.10,-1.42,-0.84,43.74219358925659,5.436946542988792,2.2270664447826913,
71690.2,56.59999999999127,0.14,0.32,0.62,0.10,-1.13,-0.80,43.47360233521027,5.498909477766563,2.3311169932452085,
71690.3,56.69999999999709,0.14,0.35,0.61,0.08,-0.26,0.31,45.0389276071267,5.446549976378719,2.258812922289325,
71690.4,56.79999999998836,0.13,0.36,0.62,-0.18,-0.14,-0.06,45.65008433727149,5.450917940206364,2.2725564194870507,
71690.5,56.89999999999418,0.13,0.28,0.64,0.00,-0.84,0.05,43.65467787076203,5.454160021412081,2.2167964563405915,
71690.6,57.0,0.13,0.29,0.65,0.09,-1.65,-0.86,43.81354470937041,5.521142737110808,2.43452063260669,
71690.7,57.09999999999127,0.09,0.36,0.67,0.09,-1.53,-0.86,45.09066200445498,5.4221960025380564,2.2877886924958535,
71690.8,57.19999999999709,0.06,0.35,0.68,0.07,-0.81,-0.75,44.54988776641306,5.3912788851286875,2.303239930739586,
71690.9,57.29999999998836,0.06,0.34,0.73,0.01,-0.08,-0.60,44.57639285541171,5.549868172200656,2.4150579875928058,
71691.1,57.5,0.05,0.24,0.65,-0.28,0.53,0.22,43.82762827258623,5.547644983934898,2.445810162947428,
71691.2,57.59999999999127,0.03,0.22,0.62,-0.27,0.60,0.34,43.71744960539212,5.513332663469668,2.480606648562709,
71691.3,57.69999999999709,0.02,0.21,0.61,-1.91,1.09,0.79,44.121917456067116,5.545798268148691,2.4456021959179957,
71691.4,57.79999999998836,0.01,0.20,0.63,-2.10,1.61,-0.47,43.77446744393357,5.782999497075714,2.5412437102515786,
71691.5,57.89999999999418,-0.00,0.19,0.62,-1.67,3.71,-1.69,43.56348700460054,5.512749253156098,2.446983553488793,
71691.6,58.0,-0.02,0.18,0.61,-1.83,1.20,-1.90,42.668641881362944,0.16042268825640488,2.098070763079176,
71691.7,58.09999999999127,0.08,0.29,0.62,-0.26,0.63,0.46,43.25113755729437,5.515883562202295,2.445178690005181,
71691.8,58.19999999999709,0.06,0.26,0.65,-0.26,0.43,0.13,42.36910430962637,5.557002243869119,2.4468968674227125,
71691.9,58.29999999998836,-0.12,0.17,0.51,-0.28,0.48,0.17,42.55666105323584,5.564696104327647,2.435808167078544,
71692.1,58.5,-0.36,-0.72,0.59,0.01,0.21,0.05,44.857079708781754,0.5866880256272815,1.9169688110806264,
71692.2,58.59999999999127,-0.36,-0.72,0.57,0.09,0.15,0.06,44.68262413959144,0.6392329589966879,1.9379671087799537,
71692.3,58.69999999999709,-0.37,-0.72,0.56,0.03,0.02,0.01,44.74526231904334,0.6371162906145049,1.9245328451836403,
71692.4,58.79999999998836,-0.36,-0.72,0.61,0.03,0.03,0.00,44.47656573972411,0.5537832623459384,1.8716501941359778,
71692.5,58.89999999999418,-0.39,-0.71,0.57,0.00,0.11,0.05,44.9663362972791,0.6314647831372711,1.8892760854653428,
71692.6,59.0,-0.40,-0.70,0.57,0.00,0.15,0.05,45.13946388693601,0.606196592630136,1.9020346848873881,
71692.7,59.09999999999127,-0.40,-0.65,0.63,0.06,-0.05,0.01,44.171393457757254,0.5922590290264294,1.9067027819953626,
71692.8,59.19999999999709,-0.40,-0.70,0.58,0.02,0.11,0.08,45.45354001615276,0.5694946177431461,1.9199552134170543,
71692.9,59.29999999998836,-0.40,-0.69,0.57,0.03,0.08,0.09,42.997360384098,0.5466963724443678,1.9358491731927259,
71693.1,59.5,-0.38,-0.65,0.68,-0.14,-0.43,0.11,45.240983632100665,0.5263896565327794,1.8758992501172498,
71693.2,59.59999999999127,-0.40,-0.63,0.63,-0.30,-0.62,0.12,44.63074276773803,0.5536739895384931,1.9035857203172113,
71693.3,59.69999999999709,-0.44,-0.60,0.62,-0.05,-0.22,0.21,44.54271657633827,0.5630378352499927,1.9391754461948671,
71693.4,59.79999999998836,-0.40,-0.61,0.62,0.19,0.19,0.02,43.38238697904946,0.5690908865470805,1.9093916004668599,
71693.5,59.89999999999418,-0.48,-0.58,0.67,0.16,0.39,-0.12,43.28107554116464,0.5649627005306902,1.910216042374417,
71693.6,60.0,-0.37,-0.65,0.68,0.09,0.35,0.11,45.510206547542715,0.5759744699382033,1.9117971706296077,
71693.7,60.09999999999127,-0.37,-0.65,0.68,0.11,0.64,0.10,44.146467582355896,0.5531791053739844,1.9341466684653057,
71693.8,60.19999999999709,-0.46,-0.64,0.59,0.06,0.21,0.12,45.25925872128265,0.5311126335227109,1.8794804729622445,
71693.9,60.29999999998836,-0.45,-0.72,0.40,-0.03,-0.04,0.10,43.87503162392023,0.5630378352499927,1.897488006404171,
71694.1,60.5,-0.42,-0.61,0.65,0.00,-0.02,0.03,44.55397962023146,0.49413575126721554,1.9234865533543395,
71694.2,60.59999999999127,-0.42,-0.61,0.64,-0.00,-0.00,0.02,46.03495736937311,0.5436344127904064,1.9229874297754594,
71694.3,60.69999999999709,-0.42,-0.61,0.64,0.03,0.04,-0.01,45.50309440027128,0.5572550962985721,1.931041307310746,
71694.4,60.79999999998836,-0.42,-0.61,0.64,-0.02,0.01,0.01,43.78886730665683,0.5251621248648418,1.9277311320429393,
71694.5,60.89999999999418,-0.42,-0.61,0.65,0.03,0.04,0.02,43.98242944631413,0.557605887579277,1.90050314620772,
71694.6,61.0,-0.37,-0.67,0.57,0.04,0.04,0.02,44.20784771960743,0.5656887111539698,1.8870737098056414,
71694.7,61.09999999999127,-0.49,-0.66,0.59,-0.01,0.03,0.01,43.41171500873929,0.5213392935867133,1.9248262510116647,
71694.8,61.19999999999709,-0.49,-0.64,0.61,-0.01,0.11,-0.04,43.13866363252344,0.5172836915838228,1.91384235448433,
71694.9,61.29999999998836,-0.43,-0.60,0.65,-0.01,-0.01,0.06,44.38051599519772,0.5331759191659962,1.9062509808846955,
71695.1,61.5,-0.42,-0.62,0.64,-0.01,0.04,-0.03,44.37852070540432,0.5012671269781501,1.9014978636738356,
71695.2,61.59999999999127,-0.42,-0.62,0.64,-0.01,0.04,-0.03,44.457306486110916,0.5012295606240856,1.935098005656183,
71695.6,62.0,-0.41,-0.63,0.62,-0.01,0.05,-0.03,44.89875388025819,0.5368718252305913,1.9284966842711146,
