Clock Time (s),Elapsed Time (s),ax,ay,az,gx,gy,gz,mr,mtheta,mphi,
54914.7,0.0,-0.23,-0.12,0.89,-0.03,-0.01,0.01,41.66080652123768,4.34104676720758,1.4461362176685626,
54914.8,0.10000000000582077,-0.25,-0.14,0.89,-0.03,0.04,0.00,42.05594131629917,4.335768594074216,1.419227288068665,
54914.9,0.20000000000436557,-0.25,-0.13,0.89,-0.05,-0.04,0.03,42.22030317276275,4.32675444309809,1.4697250109963573,
54915.0,0.3000000000029104,-0.24,-0.14,0.90,-0.06,-0.10,0.03,41.94589014432761,4.320255220315941,1.4589912245706878,
54915.1,0.4000000000014552,-0.24,-0.15,0.91,-0.08,-0.16,0.04,42.391332840570136,4.349308591210772,1.4523349216380395,
54915.2,0.5,-0.29,-0.17,0.91,-0.02,-0.10,0.15,42.56926003585217,4.291594950176723,1.453778538720085,
54915.3,0.6000000000058208,-0.22,-0.15,0.88,-0.19,-0.20,0.22,43.709731181969076,4.266697368499208,1.4961440730282694,
54915.4,0.7000000000043656,-0.21,-0.11,0.91,-0.20,-0.35,0.27,41.50655129012768,4.202765526783778,1.441541405629436,
54915.5,0.8000000000029104,-0.25,-0.12,0.86,-0.19,-0.24,0.48,42.37374304920442,4.154167327543943,1.4572749605911495,
54915.6,0.9000000000014552,-0.23,-0.12,0.89,-0.22,-0.26,0.95,41.503384199363786,4.119403924126844,1.448331731197043,
54915.7,1.0,-0.25,-0.20,0.91,-0.25,-0.25,1.31,42.130759546915364,4.0038403560464895,1.467600641328624,
54915.8,1.1000000000058208,-0.26,-0.23,0.85,-0.20,-0.47,1.68,43.22070568604821,3.896647114502459,1.445995234414364,
54915.9,1.2000000000043656,-0.14,-0.27,0.86,-0.32,-0.70,1.76,42.73682487036209,3.675014735407604,1.4452822531615808,
54916.0,1.3000000000029104,-0.12,-0.32,0.98,-0.35,-0.43,1.73,43.88100044438367,3.5113545501392913,1.4485715893160265,
54916.1,1.4000000000014552,-0.16,-0.34,0.87,-0.03,-0.24,1.62,40.502846813526574,3.3176251990816263,1.4176161206396283,
54916.2,1.5,-0.12,-0.28,0.79,-0.07,-0.62,1.66,38.91414267332637,3.1460616038600144,1.3584845758820174,
54916.3,1.6000000000058208,-0.03,-0.31,0.90,-0.11,-0.62,1.68,40.13956776050286,2.9924229999332255,1.3208140165514093,
54916.4,1.7000000000043656,-0.10,-0.33,0.88,-0.04,0.00,1.65,38.767886194632794,2.8646974361345787,1.282297059597635,
54916.5,1.8000000000029104,-0.11,-0.31,0.88,0.04,-0.29,1.50,35.58810053936568,2.706114093414718,1.240263897138866,
54916.6,1.9000000000014552,-0.09,-0.29,0.90,-0.00,-0.41,1.43,33.21293422749637,2.494144783190009,1.2405550689603884,
54916.7,2.0,-0.06,-0.24,0.89,-0.01,-0.18,1.45,32.10384400659834,2.370009714104943,1.180308271847775,
54916.8,2.1000000000058208,-0.16,-0.24,0.89,-0.08,-0.03,1.45,27.441213530017215,2.2081674271874823,1.156752682729904,
54916.9,2.2000000000043656,-0.16,-0.26,0.88,-0.05,-0.14,1.44,26.460410049732793,1.9919826282602158,1.0511295372944698,
54917.0,2.3000000000029104,-0.14,-0.25,0.88,-0.14,-0.10,1.42,24.505652409189192,1.7193167343753923,0.9597250734126896,
54917.1,2.400000000001455,-0.17,-0.28,0.90,-0.16,-0.23,1.33,22.16241412842924,1.4936181700303846,0.87359051005293,
54917.2,2.5,-0.15,-0.24,0.86,-0.12,-0.17,1.27,21.985581638883243,1.1328433215564013,0.7819285065455526,
54917.3,2.6000000000058208,-0.14,-0.31,0.78,-0.21,0.04,1.07,21.87473885558408,0.7045901741917043,0.8107948575213507,
54917.4,2.7000000000043656,-0.04,-0.28,0.90,-0.16,-0.27,0.78,22.039280841261586,0.5644354044263239,0.7308914141682316,
54917.5,2.8000000000029104,-0.05,-0.27,0.95,-0.03,0.13,0.40,22.128429677679343,0.3700755125872987,0.7204303067056655,
54917.6,2.900000000001455,-0.15,-0.36,0.89,0.13,-0.10,0.02,22.01524244699567,0.34924253484684986,0.7187029580151834,
54917.7,3.0,-0.14,-0.12,0.79,0.05,0.05,-0.10,21.2742496929974,0.26087181248621955,0.7400254098673433,
54917.8,3.1000000000058208,-0.29,-0.15,0.86,-0.14,-0.01,0.01,24.041243728226707,0.21251476575956693,0.7402283762286965,
54917.9,3.2000000000043656,-0.18,-0.23,0.87,0.06,-0.09,-0.04,22.070219754229907,0.3632345767156143,0.7439000676603871,
54918.0,3.3000000000029104,-0.08,-0.28,0.88,0.06,-0.31,-0.13,22.661090000262565,0.3476514966348617,0.7389852063445459,
54918.1,3.400000000001455,-0.23,-0.19,0.82,0.07,0.59,-0.24,21.594272388760867,0.2800114688324202,0.6837558952321947,
54918.2,3.5,-0.13,-0.19,0.88,0.21,-0.22,-0.14,22.383931736850876,0.30447269923176185,0.6916489580718491,
54918.3,3.6000000000058208,-0.15,-0.15,0.91,0.07,0.13,-0.03,21.51939125533062,0.3651416340208081,0.6948583489102833,
54918.4,3.7000000000043656,-0.19,-0.15,0.90,-0.03,-0.02,-0.00,21.51984433029198,0.4116804851189016,0.7156722998708107,
54918.5,3.8000000000029104,-0.16,-0.18,0.90,-0.06,-0.14,-0.02,21.396303419048817,0.28778304171821917,0.7344726598513165,
54918.6,3.900000000001455,-0.15,-0.18,0.88,-0.02,-0.05,0.01,20.552386722714225,0.3895931023468045,0.6769745895398381,
54918.7,4.0,-0.11,-0.16,0.91,-0.03,-0.14,-0.01,22.142280821993022,0.31988217375984357,0.758656641167347,
54918.8,4.100000000005821,-0.14,-0.19,0.90,-0.04,0.04,-0.06,20.693276685919027,0.4270828368799634,0.6621666758562189,
54918.9,4.200000000004366,-0.13,-0.19,0.91,-0.02,-0.01,-0.03,21.084563073490518,0.4730622602210395,0.6826191953640024,
54919.0,4.30000000000291,-0.14,-0.20,0.91,-0.03,-0.03,-0.00,21.191934786611625,0.3775055287322098,0.6601126553283319,
54919.1,4.400000000001455,-0.12,-0.20,0.89,-0.05,-0.00,0.04,21.2696450370005,0.3946122501571902,0.6517397473016717,
54919.2,4.5,-0.12,-0.20,0.91,0.00,0.02,0.01,21.811036197301583,0.40872469134795486,0.6592929519738521,
54919.3,4.600000000005821,-0.13,-0.20,0.89,0.01,0.01,0.00,19.471402106679427,0.5163856673168266,0.6726508980420984,
54919.4,4.700000000004366,-0.12,-0.19,0.90,0.01,0.03,0.00,20.1488932698548,0.40649853324544427,0.7061961934339316,
54919.5,4.80000000000291,-0.14,-0.18,0.90,-0.01,0.01,0.03,20.27995315576444,0.40499609420167604,0.6696717220667494,
54919.6,4.900000000001455,-0.13,-0.19,0.90,-0.00,-0.04,0.00,19.934384866355924,0.5003746025978433,0.6728225731856239,
54919.7,5.0,-0.13,-0.18,0.89,0.01,0.05,0.02,20.83043446498416,0.43862813539900236,0.7105159277082289,
54919.8,5.100000000005821,-0.13,-0.19,0.89,0.00,0.13,0.02,21.588249118444043,0.3514447940035517,0.6708452442219516,
54919.9,5.200000000004366,-0.13,-0.19,0.90,0.01,0.07,0.02,21.401109784307913,0.3375150141142444,0.7157005509074971,
54920.0,5.30000000000291,-0.16,-0.18,0.90,0.01,0.08,-0.00,21.228598634860475,0.3205235611473631,0.652311645717158,
54920.1,5.400000000001455,-0.16,-0.18,0.90,0.01,0.03,0.00,21.845294687872716,0.2972912634770714,0.7326426217484299,
54920.2,5.5,-0.16,-0.18,0.90,-0.00,0.02,0.02,21.01746654570907,0.3428741725620059,0.6959314007187932,
54920.3,5.600000000005821,-0.16,-0.18,0.90,-0.02,0.02,0.02,20.906977304239845,0.3117780835471941,0.7306699662045062,
54920.4,5.700000000004366,-0.16,-0.19,0.90,-0.04,-0.03,0.00,21.11716363529913,0.3011237299598501,0.7611321669937234,
54920.5,5.80000000000291,-0.15,-0.19,0.90,0.00,-0.03,-0.00,21.231592026977157,0.25618267608314105,0.7660940637886052,
54920.6,5.900000000001455,-0.16,-0.18,0.90,-0.02,0.04,0.01,20.34573419663198,0.26849709606278255,0.6862516706236003,
54920.7,6.0,-0.16,-0.19,0.90,-0.01,0.05,0.02,20.96935144442956,0.32994709214655477,0.7239600493449377,
54920.8,6.100000000005821,-0.16,-0.18,0.90,-0.00,0.03,0.02,21.503288120657267,0.4053642420753108,0.7026395150597489,
54920.9,6.200000000004366,-0.18,-0.19,0.90,-0.01,0.05,0.01,22.429893000190617,0.39046475570775346,0.7501113825014742,
54921.0,6.30000000000291,-0.18,-0.18,0.90,-0.02,0.02,0.01,22.167936304491676,0.38776107559115136,0.7031432867707414,
54921.1,6.400000000001455,-0.17,-0.19,0.90,-0.02,-0.01,0.01,20.69267744879816,0.3194303729451681,0.719037427898494,
54921.2,6.5,-0.17,-0.18,0.89,-0.02,0.01,0.02,23.6183191611935,0.3760405045687975,0.7094303374034707,
54921.3,6.600000000005821,-0.18,-0.18,0.89,-0.01,0.02,0.02,22.953563993419408,0.39392838985245593,0.7742842728547955,
54921.4,6.700000000004366,-0.17,-0.18,0.90,-0.02,-0.00,0.02,21.511034377732745,0.2686747826958988,0.7614815190092893,
54921.5,6.80000000000291,-0.16,-0.18,0.90,-0.02,0.04,0.02,22.914351398195848,0.38813265188185125,0.7624766054515176,
54921.6,6.900000000001455,-0.17,-0.19,0.90,-0.09,0.05,0.04,21.97271717380443,0.35491576056393587,0.7437827390419568,
54921.7,7.0,-0.19,-0.21,0.89,0.00,-0.02,-0.02,23.135608917856473,0.3258321643836373,0.7338846208427788,
54921.8,7.100000000005821,-0.17,-0.18,0.90,0.02,0.01,0.00,22.34932437457562,0.3811377698810947,0.7181217398891818,
54921.9,7.200000000004366,-0.17,-0.19,0.89,-0.00,-0.01,0.01,22.81051731110016,0.3935412453381085,0.7403152623983527,
54922.0,7.30000000000291,-0.17,-0.20,0.89,-0.01,0.02,0.01,21.376728000327834,0.3685133487306044,0.7100929720107589,
54922.1,7.400000000001455,-0.17,-0.18,0.90,0.01,0.01,0.01,22.52845977868882,0.35549648719415267,0.7508997355170219,
54922.2,7.5,-0.18,-0.18,0.90,0.00,0.01,0.01,22.43014266561851,0.32662236503737796,0.7282847655575092,
54922.3,7.600000000005821,-0.18,-0.18,0.89,-0.01,0.02,0.01,21.82486196978116,0.4766128468213332,0.6843906193200653,
54922.4,7.700000000004366,-0.18,-0.19,0.89,-0.01,0.01,0.01,21.861896075134933,0.38024531459382105,0.7085411466994063,
54922.5,7.80000000000291,-0.17,-0.19,0.89,-0.01,0.00,0.01,21.09159074133575,0.3660340560504587,0.7168866978793951,
54922.6,7.900000000001455,-0.18,-0.18,0.89,-0.01,0.02,0.01,23.156152530159236,0.30434824337847466,0.709386507555618,
54922.7,8.0,-0.17,-0.19,0.90,-0.01,0.01,0.01,22.594950763389594,0.3054868042507654,0.747560299786928,
54922.8,8.10000000000582,-0.18,-0.18,0.90,-0.01,0.00,0.00,21.679324251461345,0.31951841524667707,0.7121748965643644,
54922.9,8.200000000004366,-0.17,-0.18,0.89,-0.01,0.02,0.01,21.374683623389608,0.33435682038050524,0.7171295406791653,
54923.0,8.30000000000291,-0.18,-0.18,0.89,-0.02,-0.01,0.01,22.829789749360373,0.29815919174291194,0.7255338441670794,
54923.1,8.400000000001455,-0.18,-0.19,0.89,-0.02,0.01,0.01,21.941854980835142,0.3076491948944592,0.7543099980416824,
54923.2,8.5,-0.18,-0.19,0.89,-0.03,0.02,0.02,23.045504984703634,0.4057231948694972,0.6646409059519875,
54923.3,8.60000000000582,-0.17,-0.19,0.89,-0.02,0.00,0.01,22.82057405062371,0.36096215773181944,0.7459772614637744,
54923.4,8.700000000004366,-0.18,-0.19,0.89,-0.02,-0.01,0.01,21.153557620409856,0.28272114824668454,0.664700360693081,
54923.5,8.80000000000291,-0.17,-0.19,0.90,-0.01,-0.01,0.01,21.09159074133575,0.3660340560504587,0.7168866978793951,
54923.6,8.900000000001455,-0.17,-0.19,0.90,-0.01,0.01,0.01,22.94766436916838,0.33365226845165,0.7208049489826189,
54923.7,9.0,-0.17,-0.19,0.89,-0.01,0.01,0.01,22.3146969506646,0.36179454977480285,0.7667732519162848,
54923.8,9.10000000000582,-0.17,-0.19,0.90,-0.01,0.01,0.01,22.714343486000203,0.4553906453693535,0.7310653720293077,
54923.9,9.200000000004366,-0.18,-0.19,0.90,-0.06,-0.00,0.03,22.112969045336268,0.37051287884070067,0.7486597788942608,
54924.0,9.30000000000291,-0.18,-0.20,0.89,-0.04,0.04,0.01,22.92830783115056,0.35917559412275296,0.6819693270669271,
54924.1,9.400000000001455,-0.16,-0.19,0.89,-0.00,-0.02,-0.01,22.337578203556443,0.42544035791938606,0.7568158028616234,
54924.2,9.5,-0.12,-0.18,0.94,-0.02,0.17,0.04,23.18855967929013,0.3489418269508823,0.7037130000454525,
54924.3,9.60000000000582,-0.17,-0.12,0.97,0.21,0.43,-0.06,23.07533098354171,0.3341306809499828,0.7413105751612071,
54924.4,9.700000000004366,0.03,-0.13,1.16,0.65,-1.16,-0.52,22.72646474927414,0.3340902614482981,0.6980962429840465,
54924.5,9.80000000000291,-0.10,-0.08,1.10,0.95,0.08,-0.44,19.93852802992237,0.35967605707614775,0.7054188536151164,
54924.6,9.900000000001455,-0.13,0.00,1.05,1.28,-0.76,-0.18,18.374648295953858,0.1469251104275302,0.5473745050301705,
54924.7,10.0,-0.08,0.12,0.92,1.42,-0.98,-0.02,15.041765188966354,6.194721150452635,0.39387509061305437,
54924.8,10.10000000000582,-0.03,0.25,0.75,1.30,-0.98,0.03,15.50537326219527,4.818914892164297,0.3337096448063994,
54924.9,10.200000000004366,0.08,0.40,0.56,0.78,-0.60,0.10,16.145166459346278,4.3667521848271145,0.6114423038297107,
54925.0,10.30000000000291,0.19,0.42,0.62,0.03,-0.24,0.33,17.51654360882877,4.15879901575098,0.7429936687874619,
54925.1,10.400000000001455,0.16,0.43,0.71,-0.16,0.13,0.31,18.534964256776973,4.2297030274682825,0.7195656079211937,
54925.2,10.5,0.15,0.44,0.67,-0.43,0.17,0.24,18.28619424593319,4.243560070599645,0.6021512946339995,
54925.3,10.60000000000582,0.33,0.29,0.75,-0.17,-0.74,-0.15,18.356557411453814,4.092583741373976,0.6067512388822882,
54925.4,10.700000000004366,0.31,0.29,0.65,-0.49,0.05,-0.01,20.913914028703473,3.896732301843414,0.6201138902257405,
54925.5,10.80000000000291,0.42,0.27,0.89,-0.23,-0.72,-0.35,19.046663749853934,3.7566498581636885,0.6137986291197224,
54925.6,10.900000000001455,0.34,0.26,0.81,-0.18,-0.01,-0.09,19.51863724751295,3.5725612047190136,0.578747108221132,
54925.7,11.0,0.35,0.19,0.87,0.03,-0.07,0.17,20.493943007630328,3.505652041210017,0.5703498942963496,
54925.8,11.10000000000582,0.36,0.30,0.75,-0.03,0.21,0.05,21.338580083969973,3.5674518616803708,0.5291723152710112,
54925.9,11.200000000004366,0.34,0.29,0.78,-0.03,0.09,-0.00,21.345690431560186,3.681847273400206,0.5089755086204116,
54926.0,11.30000000000291,0.34,0.29,0.81,-0.03,0.14,-0.00,20.851573082144185,3.6009129882631132,0.5766275805077803,
54926.1,11.400000000001455,0.32,0.28,0.79,-0.00,0.16,-0.08,19.68690173694175,3.617661983912554,0.5375871107498246,
54926.2,11.5,0.31,0.27,0.79,0.15,0.66,-0.24,20.24767887931849,3.9355243569308067,0.46695796203159495,
54926.3,11.60000000000582,0.23,0.26,0.80,0.22,1.11,-0.45,19.25965212562262,4.1536549123132005,0.4207347974968525,
54926.4,11.700000000004366,-0.03,0.24,0.73,0.00,1.54,-0.39,18.092805199857757,4.627796019537873,0.3891558671946074,
54926.5,11.80000000000291,-0.22,0.47,0.85,0.19,2.31,-0.36,21.66317612909058,5.386195925370494,0.4815099896198993,
54926.6,11.900000000001455,-0.10,0.72,0.56,0.67,2.05,-0.61,30.215593656256367,5.764571497094645,0.6648475470708297,
54926.7,12.0,-0.17,0.37,0.88,0.39,-0.35,-0.31,36.783229874495795,5.842252005395803,0.6563762145894256,
54926.8,12.10000000000582,-0.58,0.37,0.67,-0.07,-0.01,0.11,35.90923418843683,5.773037529231642,0.7160536160592149,
54926.9,12.200000000004366,-0.51,0.41,0.69,0.00,0.12,0.04,34.89081397732073,5.861529805400149,0.6568838122048705,
54927.0,12.30000000000291,-0.49,0.38,0.71,-0.00,-0.15,0.03,37.09736783115481,5.818986126254572,0.7150810644646608,
54927.1,12.400000000001455,-0.48,0.39,0.73,-0.14,-0.28,0.17,37.20850574801412,5.809638880679284,0.699108216080929,
54927.2,12.5,-0.43,0.39,0.72,-0.21,-0.48,0.24,35.876752918847046,5.7939285439562385,0.6541752279133265,
54927.3,12.60000000000582,-0.44,0.34,0.81,-0.34,-0.40,0.29,33.018355501145116,5.761787081578432,0.6651324186026393,
54927.4,12.700000000004366,-0.33,0.33,0.81,-0.33,-0.59,0.30,31.931031928204263,5.795367603531932,0.6468771397263869,
54927.5,12.80000000000291,-0.21,0.32,0.98,-0.23,-1.01,0.23,28.457492862161978,5.702165830344734,0.5923006835728089,
54927.6,12.900000000001455,-0.03,0.31,0.97,0.15,-2.54,0.17,25.20974613120886,5.593149190684547,0.5833939807149376,
54927.7,13.0,0.15,0.35,0.95,0.29,-3.05,0.61,19.317543839732835,5.0598330479300095,0.4481429705077054,
54927.8,13.10000000000582,0.31,0.31,0.67,-0.35,-0.50,0.79,20.063362131008848,3.963442993123854,0.5838316675822669,
54927.9,13.200000000004366,0.42,0.30,0.73,0.01,-0.48,0.00,22.32975145405788,3.615001340857668,0.5871524359412442,
54928.0,13.30000000000291,0.42,0.24,0.84,0.05,0.22,-0.17,22.039764064072916,3.6215624467344782,0.6087989650221721,
54928.1,13.400000000001455,0.40,0.22,0.69,0.11,0.09,-0.08,20.297433335276658,3.6770906310000084,0.5816202301947657,
54928.2,13.5,0.37,0.20,0.63,0.22,0.48,-0.15,19.755923162434094,3.739210345437063,0.6058261259355255,
54928.3,13.60000000000582,0.14,0.28,0.69,-0.01,0.17,0.06,17.458081223318903,3.9570820657706722,0.6507658532218432,
54928.4,13.700000000004366,0.15,0.31,0.70,-0.47,0.63,0.04,17.287446312281062,4.043542706728046,0.6992964794787286,
54928.5,13.80000000000291,0.15,0.27,0.82,-1.11,1.18,-0.08,15.177354842000632,4.115843053371344,0.4658583866311454,
54928.6,13.900000000001455,-0.02,0.23,0.98,-1.70,1.14,-0.00,11.298079482814765,4.616450107531403,0.21415075827499602,
54928.7,14.0,-0.01,0.07,1.16,-1.36,0.83,0.05,14.199830984909644,0.28872952851239736,0.3013355890684314,
54928.8,14.10000000000582,-0.01,-0.12,1.13,-0.88,0.36,0.08,17.556167007635803,0.7397072717523808,0.5784472069078995,
54928.9,14.200000000004366,0.08,-0.19,1.59,-0.05,0.89,-0.05,19.18663336805079,0.8130279042077166,0.7124282108826548,
54929.0,14.30000000000291,-0.10,-0.21,0.80,-0.13,-0.38,0.00,20.615171597636532,0.7521650209092374,0.7080450707665332,
54929.1,14.400000000001455,-0.16,-0.13,0.88,0.07,-0.03,-0.11,21.012553390770957,0.762845596747144,0.7362594047585687,
54929.2,14.5,-0.14,-0.21,0.96,0.01,-0.05,0.00,21.125685787685093,0.7130471738958426,0.7872785401220934,
54929.3,14.60000000000582,-0.14,-0.19,0.92,-0.02,0.09,0.02,21.09173297763842,0.6959820566498582,0.7522638142599742,
54929.4,14.700000000004366,-0.15,-0.19,0.90,-0.01,0.01,-0.00,21.23528667101059,0.7002387707777415,0.793068486734655,
54929.5,14.80000000000291,-0.15,-0.18,0.91,-0.02,0.02,0.03,21.03790151131999,0.6629754733708753,0.7326267184208374,
54929.6,14.900000000001455,-0.16,-0.19,0.89,-0.01,-0.00,0.02,19.778071190083224,0.779587346602651,0.7434042287770873,
54929.7,15.0,-0.15,-0.17,0.89,0.00,-0.03,0.02,20.945388513942632,0.6988655098557546,0.7908272637202319,
54929.8,15.10000000000582,-0.15,-0.17,0.89,-0.01,0.05,-0.00,21.711667370333398,0.7134285162951147,0.7285469614058386,
54929.9,15.200000000004366,-0.15,-0.18,0.90,-0.01,0.01,0.01,21.70144695636676,0.6667963048597002,0.7593302412699428,
54930.0,15.30000000000291,-0.15,-0.18,0.90,-0.01,0.01,0.01,22.007719100352038,0.7477789497660425,0.7408088721405862,
54930.1,15.400000000001455,-0.16,-0.18,0.90,-0.01,0.02,0.01,21.033064446247487,0.6686704333995621,0.8062032446482692,
54930.2,15.5,-0.15,-0.18,0.90,-0.01,-0.00,0.02,19.901263778966403,0.7101075215315864,0.7741293545138921,
54930.3,15.60000000000582,-0.15,-0.17,0.90,-0.02,-0.01,0.02,20.928289466652547,0.6666837214396456,0.7424686409369309,
54930.4,15.700000000004366,-0.16,-0.16,0.90,-0.02,0.02,-0.02,21.44644958961739,0.7126205232502083,0.7356697594935643,
54930.5,15.80000000000291,-0.13,-0.17,0.91,-0.01,-0.00,0.01,20.570330575856094,0.7444247404145817,0.7247712868244567,
54930.6,15.900000000001455,-0.16,-0.18,0.90,-0.02,0.01,0.01,21.83327964369989,0.701465792433559,0.7476565480769303,
54930.7,16.0,-0.16,-0.18,0.90,-0.00,-0.04,0.02,21.851878637773915,0.7348818939021257,0.8098000747929743,
54930.8,16.10000000000582,-0.16,-0.18,0.90,-0.02,0.04,0.02,21.433340850180123,0.6892342255403456,0.7529070028855055,
54930.9,16.200000000004366,-0.17,-0.18,0.90,-0.01,-0.00,0.01,20.32980324548174,0.6701538184341554,0.7568369662194827,
54931.0,16.30000000000291,-0.17,-0.19,0.89,-0.02,0.06,0.01,20.683186408288257,0.7068859591146525,0.7657317697829386,
54931.1,16.400000000001455,-0.15,-0.17,0.90,0.01,-0.05,-0.01,20.629224415862076,0.732373819891161,0.711813930322785,
54931.2,16.5,-0.14,-0.16,0.90,0.01,-0.01,-0.00,21.200757061954178,0.7538297069096702,0.7284610959519155,
54931.3,16.60000000000582,-0.15,-0.18,0.90,-0.00,0.05,0.03,20.50418737721639,0.7050237407956903,0.6833666966725906,
54931.4,16.700000000004366,-0.15,-0.16,0.90,0.02,-0.02,0.01,20.654883199863416,0.710625808030878,0.7516285119708211,
54931.5,16.80000000000291,-0.17,-0.18,0.90,0.01,0.06,0.02,21.60897035955207,0.6164806596060197,0.75481077667259,
54931.6,16.900000000001455,-0.16,-0.17,0.91,0.00,0.03,0.03,20.275504925895188,0.762845596747144,0.7697166553426869,
54931.7,17.0,-0.17,-0.17,0.90,0.00,0.03,0.03,21.758947584844265,0.6736841952852012,0.7466754865565289,
54931.8,17.10000000000582,-0.18,-0.17,0.89,0.00,0.04,0.02,21.27199097404848,0.681126551469793,0.7612755294241363,
54931.9,17.200000000004366,-0.16,-0.17,0.90,-0.01,0.03,0.02,20.43139985414607,0.5804355894472294,0.8003201720520569,
54932.0,17.30000000000291,-0.17,-0.17,0.90,-0.01,-0.00,0.01,20.488760333412074,0.5907471565465842,0.7621930779533624,
54932.1,17.400000000001455,-0.16,-0.16,0.90,-0.01,0.00,0.01,21.257953805575927,0.6720250336377868,0.7426701994961301,
54932.2,17.5,-0.17,-0.17,0.90,-0.00,0.00,0.00,21.29433962347741,0.6132073488745092,0.7507459113889886,
54932.3,17.60000000000582,-0.16,-0.16,0.90,-0.01,-0.00,0.01,20.45900535216705,0.48627626518596706,0.8245075169839122,
54932.4,17.700000000004366,-0.17,-0.17,0.90,-0.01,0.01,0.01,21.344662096177583,0.6294669425261921,0.7310879790456986,
54932.5,17.80000000000291,-0.16,-0.17,0.89,-0.01,0.00,0.01,21.294022635472142,0.6152317229806428,0.74034581143464,
54932.6,17.900000000001455,-0.17,-0.16,0.90,-0.01,0.00,0.01,22.19736245593156,0.6757080599104267,0.8146575642632756,
54932.7,18.0,-0.16,-0.16,0.90,-0.01,0.00,0.01,21.96947200093803,0.630952319977996,0.7307565118872709,
54932.8,18.10000000000582,-0.17,-0.16,0.90,-0.01,0.01,0.01,20.988744602762694,0.6427933948279291,0.7385523168876669,
54932.9,18.200000000004366,-0.16,-0.16,0.90,-0.01,0.01,-0.00,21.14652926605215,0.683633273235126,0.7955690283495608,
54933.0,18.30000000000291,-0.17,-0.17,0.90,-0.02,0.07,0.01,21.766811893338904,0.6876900114309027,0.7423208230920914,
54933.1,18.400000000001455,-0.17,-0.17,0.90,-0.01,0.01,0.01,22.09325236356114,0.6486335370242442,0.7110187824668065,
54933.2,18.5,-0.17,-0.17,0.90,-0.01,0.03,0.02,21.12592956534694,0.6164806596060197,0.7765417589897334,
54933.3,18.60000000000582,-0.18,-0.17,0.90,-0.01,0.03,0.02,21.101563923083997,0.6247159575221845,0.7288868341903466,
54933.4,18.700000000004366,-0.18,-0.17,0.89,0.00,0.02,0.02,20.748862619430493,0.6099372765914958,0.7766120769095869,
54933.5,18.80000000000291,-0.17,-0.17,0.90,-0.01,0.01,0.01,22.201148618934113,0.5677778015502353,0.764057556031967,
54933.6,18.900000000001455,-0.17,-0.17,0.89,-0.01,-0.00,0.01,21.00671321268513,0.6226142931779064,0.7782356049884624,
54933.7,19.0,-0.17,-0.17,0.90,-0.00,0.03,0.01,22.62623698275964,0.6310390770813481,0.7490506520389868,
54933.8,19.10000000000582,-0.16,-0.16,0.92,-0.00,0.03,-0.00,21.333911971319278,0.6607965293193703,0.7298232124495047,
54933.9,19.200000000004366,-0.17,-0.14,0.97,-0.05,0.26,-0.03,20.24417200085002,0.5926974047350627,0.7759076020299603,
54934.0,19.30000000000291,-0.13,-0.16,1.07,0.19,-0.07,0.00,22.62085984218991,0.555645621501584,0.7507410738777912,
54934.1,19.400000000001455,-0.08,-0.06,1.22,0.87,-0.25,-0.04,19.602890093044955,0.5450706295216934,0.6938897849202738,
54934.2,19.5,-0.10,0.02,1.17,1.55,-0.32,-0.00,19.506850078882547,0.4236990396379503,0.6541467825764201,
54934.3,19.60000000000582,-0.10,0.11,0.92,1.81,-0.45,0.04,18.307651405901304,0.0,0.5360167184149125,
54934.4,19.700000000004366,-0.17,0.24,0.72,1.46,-0.75,0.18,16.20339162027506,5.609001467962465,0.5457093808003203,
54934.5,19.80000000000291,0.01,0.48,0.54,0.63,-0.89,0.23,16.698023835172833,4.913410340154275,0.7047604150940916,
54934.6,19.900000000001455,0.02,0.35,0.55,-0.18,-0.21,0.24,18.355606772863705,4.691387502371329,0.6393569793360389,
54934.7,20.0,0.13,0.28,0.71,-0.52,-0.74,0.23,16.852210537493296,4.465682777021791,0.622614885193899,
54934.8,20.10000000000582,0.10,0.27,0.73,-0.73,-0.36,0.27,18.091937430800495,4.283695560079314,0.5343411583014487,
54934.9,20.200000000004366,0.39,0.18,0.99,-0.44,-0.48,0.32,17.031280045845058,4.050132383519607,0.3919083178894359,
54935.0,20.30000000000291,0.30,0.34,0.99,-0.39,1.12,0.13,19.053637448004515,3.6278728820756037,0.5573555291489342,
54935.1,20.400000000001455,0.09,0.23,0.75,0.15,0.62,-0.07,18.13791884423348,4.041673961388949,0.39517716082887266,
54935.2,20.5,-0.12,0.28,0.53,-0.35,1.92,-0.19,18.04202593945591,4.576493700437649,0.34645691084367963,
54935.3,20.60000000000582,-0.49,0.32,0.60,-0.21,3.62,-0.16,20.494021079329453,5.411388594423691,0.40698966822714,
54935.4,20.700000000004366,-0.77,0.03,0.64,0.96,1.02,-0.57,34.88023079052087,5.960710639947882,0.6764319105923948,
54935.5,20.80000000000291,-0.37,0.28,0.81,-0.22,0.39,0.40,36.66266766071448,5.928150106662046,0.6846665977869504,
54935.6,20.900000000001455,-0.57,0.31,0.68,0.11,-0.09,-0.03,38.3630264708091,5.907381964343951,0.6525878539046179,
54935.7,21.0,-0.51,0.33,0.76,0.05,0.12,0.05,38.39089084665788,5.852822344299678,0.6952548253349135,
54935.8,21.10000000000582,-0.50,0.35,0.72,-0.13,-0.17,0.14,38.461680930505366,5.881944929812382,0.6769656525655785,
54935.9,21.200000000004366,-0.46,0.33,0.79,-0.22,-0.34,0.16,38.65874933310699,5.887385646739482,0.6832839280997588,
54936.0,21.30000000000291,-0.41,0.36,0.81,-0.37,-0.87,0.17,34.168655226684,5.874318931869649,0.704694763440745,
54936.1,21.400000000001455,-0.29,0.25,0.91,-0.39,-0.80,0.17,32.8093690887222,5.852707050896213,0.680080960481334,
54936.2,21.5,-0.17,0.25,0.97,-0.09,-1.54,0.07,27.837544791162887,5.841880348378917,0.6129403140697987,
54936.3,21.60000000000582,-0.04,0.31,1.01,0.02,-2.32,0.23,22.205713228806683,5.831843366875637,0.4577107998149278,
54936.4,21.700000000004366,-0.09,0.31,0.39,-0.05,-1.93,0.63,16.840774922787848,4.247129769233608,0.33583008965357924,
54936.5,21.80000000000291,0.26,0.18,0.69,-0.25,-0.49,0.06,17.340207611213888,3.5277140814393584,0.4329859859744993,
54936.6,21.900000000001455,0.42,0.26,0.91,-0.05,0.31,-0.07,19.08910160274705,3.3873376000915765,0.5206204858127212,
54936.7,22.0,0.28,0.09,0.81,0.48,-0.22,-0.30,19.257032481667576,3.481020075268688,0.44156186360702787,
54936.8,22.10000000000582,0.41,0.20,0.73,0.82,-0.94,-0.12,19.825362543973817,3.5353363951992542,0.6812553224002085,
54936.9,22.200000000004366,0.21,0.30,0.66,0.30,0.99,0.32,20.887857716865078,3.7741931316462507,0.7669427880453492,
54937.0,22.30000000000291,0.13,0.22,0.60,-0.29,1.03,0.24,18.91712716032749,4.021719568940252,0.7970252011435094,
54937.1,22.400000000001455,0.16,0.26,0.61,-1.16,1.34,0.11,16.146659097163102,4.077229701034739,0.6359618269877756,
54937.2,22.5,0.24,0.32,0.81,-1.61,0.48,-0.53,12.99736127065798,4.952503192652262,0.27186246428192035,
54937.3,22.60000000000582,0.01,0.20,1.01,-1.59,1.99,-0.73,13.00770925259325,0.6450041136735329,0.31192916377347735,
54937.4,22.700000000004366,-0.06,-0.35,1.97,-1.19,0.76,-0.62,18.489121125678203,0.7132345344377907,0.6899711941063974,
54937.5,22.80000000000291,-0.23,0.10,0.58,0.22,-1.63,-0.22,23.45867856465918,0.5906093099275643,0.8120415980173202,
54937.6,22.900000000001455,-0.05,-0.26,1.08,-0.04,0.82,0.18,21.815492201644226,0.7155915479671846,0.7648220115228148,
54937.7,23.0,-0.20,-0.18,0.96,-0.06,-0.36,-0.03,21.74586167527054,0.5963342347041001,0.7812695010204507,
54937.8,23.10000000000582,-0.17,-0.18,0.89,0.01,0.09,0.00,21.580660323539686,0.7165899436334613,0.7761699817089956,
54937.9,23.200000000004366,-0.19,-0.13,0.89,-0.01,-0.05,-0.01,23.840251676523884,0.7053930892673482,0.7415710280336278,
54938.0,23.30000000000291,-0.15,-0.19,0.89,-0.07,-0.01,0.10,20.45381626983092,0.7460096788418664,0.7786709563797993,
54938.1,23.400000000001455,-0.20,-0.15,0.90,-0.00,0.04,-0.01,22.236434066639372,0.6457230530443365,0.8163134427822427,
54938.2,23.5,-0.17,-0.16,0.90,0.00,-0.03,0.03,21.099947867234174,0.7160260939532568,0.7973853999865438,
54938.3,23.60000000000582,-0.19,-0.18,0.90,-0.03,0.03,0.06,21.41069358988634,0.6764338831519626,0.7606263394082908,
54938.4,23.700000000004366,-0.20,-0.17,0.89,-0.01,0.04,0.02,22.040313064927187,0.6585658824237262,0.8079157654545016,
54938.5,23.80000000000291,-0.18,-0.17,0.89,-0.02,0.07,0.02,23.24170604753446,0.6263708049084297,0.7452980339864823,
54938.6,23.900000000001455,-0.21,-0.17,0.88,-0.03,0.04,0.04,22.380714912620643,0.6628624512583344,0.702611767924968,
54938.7,24.0,-0.21,-0.17,0.89,-0.02,-0.08,0.04,23.210040930597255,0.707710521467902,0.7958227861935167,
54938.8,24.10000000000582,-0.18,-0.17,0.89,-0.00,-0.08,-0.00,23.093161325379427,0.5673238837541277,0.8125497207483439,
54938.9,24.200000000004366,-0.18,-0.18,0.90,-0.02,-0.01,0.00,23.36070632493804,0.6302904952399079,0.8606437585120856,
54939.0,24.30000000000291,-0.20,-0.17,0.89,-0.05,-0.02,0.01,22.870041539096512,0.7053930892673482,0.78115712698008,
54939.1,24.400000000001455,-0.20,-0.18,0.89,-0.02,0.02,0.02,22.785175004813986,0.6541312069121406,0.8015029827100134,
54939.2,24.5,-0.20,-0.19,0.89,0.01,-0.08,0.02,22.235658299227392,0.6349702573603275,0.740689020032964,
54939.3,24.60000000000582,-0.19,-0.18,0.90,-0.01,0.02,0.01,21.735339886921484,0.672746728095784,0.8046813472092894,
54939.4,24.700000000004366,-0.18,-0.17,0.89,-0.01,-0.01,0.01,22.54459358693343,0.6480083264139278,0.8157691940640425,
54939.5,24.80000000000291,-0.17,-0.18,0.90,-0.00,-0.02,-0.00,22.44342442676696,0.5937929267903427,0.6948437984026695,
54939.6,24.900000000001455,-0.19,-0.17,0.89,-0.02,-0.00,0.00,22.470180239597546,0.6601514067417402,0.7758372441430661,
54939.7,25.0,-0.18,-0.18,0.90,-0.02,-0.02,0.02,21.519058994296195,0.7084180978193875,0.813034088228979,
54939.8,25.10000000000582,-0.19,-0.17,0.89,-0.01,0.00,0.01,22.940002179598846,0.6457230530443365,0.7842280770628912,
54939.9,25.200000000004366,-0.19,-0.19,0.88,-0.01,0.06,-0.01,21.7743656624022,0.7299812264378008,0.7241754873814862,
54940.0,25.30000000000291,-0.18,-0.18,0.89,-0.04,-0.00,-0.00,21.813408720326127,0.6586601305923399,0.6959922744083776,
54940.1,25.400000000001455,-0.18,-0.18,0.90,-0.02,-0.02,0.02,23.279600512036282,0.6287503347566105,0.7577459443414307,
54940.2,25.5,-0.20,-0.19,0.89,-0.02,0.02,0.02,24.405902974485496,0.7248166484659063,0.786994998201222,
54940.3,25.60000000000582,-0.19,-0.18,0.90,0.01,-0.00,0.01,22.66758478532726,0.6880242200393903,0.7612978775534393,
54940.4,25.700000000004366,-0.17,-0.18,0.90,0.00,-0.01,0.02,21.771088626892315,0.7606177269419196,0.7499773051122243,
54940.5,25.80000000000291,-0.21,-0.19,0.89,-0.00,0.04,0.02,22.029527911419255,0.6983280462055627,0.7928957640741593,
54940.6,25.900000000001455,-0.20,-0.18,0.89,0.00,0.05,0.00,21.054733434551007,0.7637266798814794,0.7503841319218398,
54940.7,26.0,-0.19,-0.18,0.91,0.01,0.03,0.02,22.92030758955909,0.7324706136111573,0.719445250693617,
54940.8,26.10000000000582,-0.27,-0.20,0.92,0.06,0.26,-0.04,22.42381769458537,0.6300107377969157,0.7048787772961815,
54940.9,26.200000000004366,-0.15,-0.18,0.99,0.04,-0.01,0.03,23.564254709198845,0.7356376003065166,0.7501060107304466,
54941.0,26.30000000000291,-0.20,-0.17,1.01,0.28,-0.15,0.02,23.212886507282974,0.6546304538496841,0.7285549559006517,
54941.1,26.400000000001455,-0.09,-0.08,1.22,0.80,-0.30,0.08,21.01474958213873,0.6154556588508524,0.6875699470887341,
54941.2,26.5,-0.13,0.02,1.12,1.49,-0.39,-0.01,20.24753071364506,0.29067248091319986,0.6474438770332548,
54941.3,26.60000000000582,-0.13,0.09,0.99,1.71,-0.54,0.18,17.838522920914723,6.217165689700909,0.5749949616174583,
54941.4,26.700000000004366,-0.18,0.28,0.75,1.58,-0.07,0.26,15.007651381878512,5.376990853073592,0.51514200140549,
54941.5,26.80000000000291,-0.11,0.42,0.48,0.93,-1.26,0.36,17.929620743339775,5.213225206718177,0.7174241393619019,
54941.6,26.900000000001455,0.12,0.42,0.50,-0.32,-0.82,0.31,19.190260550602225,4.707675739559351,0.7253063283584371,
54941.7,27.0,0.19,0.22,0.66,-0.66,0.03,0.06,15.844380707367518,4.4268544680604585,0.5838161772766965,
54941.8,27.10000000000582,0.12,0.25,0.64,-0.77,0.37,0.09,17.44054184938071,4.487112201170634,0.5006592250672488,
54941.9,27.200000000004366,0.39,0.24,1.09,0.06,-1.80,-0.59,16.55287890368319,4.2642154493821245,0.3754253090830282,
54942.0,27.30000000000291,0.34,0.27,0.76,-0.03,0.05,0.10,18.65329461516115,3.810695521264819,0.5121439469414922,
54942.1,27.400000000001455,0.28,0.31,0.83,-0.03,-0.03,0.14,19.11953189803558,3.8492463998874307,0.48551254750370565,
54942.2,27.5,0.30,0.27,0.79,0.05,0.04,-0.06,19.800558072943296,3.720979422947351,0.5471392036135874,
54942.3,27.60000000000582,0.21,0.33,0.74,0.05,0.80,-0.14,18.37363600379631,3.910369425689197,0.45553486860195436,
54942.4,27.700000000004366,0.04,0.35,0.70,-0.09,1.98,-0.35,17.521386931404717,4.058003168273605,0.4098895650370613,
54942.5,27.80000000000291,-0.36,0.44,0.68,-0.04,3.37,-0.62,20.775596260998142,5.532098615526961,0.4628136675786064,
54942.6,27.900000000001455,-0.79,0.27,0.73,1.38,1.90,-1.03,35.75058880633996,5.962413636542442,0.6848203442963885,
54942.7,28.0,-0.37,0.32,0.78,-0.12,0.14,0.28,34.60177018593124,5.892126517156321,0.722355244227864,
54942.8,28.10000000000582,-0.51,0.30,0.73,0.12,-0.41,-0.07,37.05006747632182,5.907381964343951,0.6799622985945599,
54942.9,28.200000000004366,-0.47,0.37,0.77,-0.16,0.13,0.21,35.34357791735296,5.828758748296872,0.6655708713886047,
54943.0,28.30000000000291,-0.40,0.31,0.83,-0.39,-0.74,0.22,36.220274709063155,5.878065288557943,0.6884693401683217,
54943.1,28.400000000001455,-0.33,0.28,0.84,-0.47,-0.82,0.23,31.61428949067178,5.903521626496958,0.6781067789600044,
54943.2,28.5,-0.20,0.30,0.88,-0.12,-1.42,0.10,29.336543763708768,5.8568414483459454,0.6394699664789093,
54943.3,28.60000000000582,-0.13,0.29,0.94,-0.14,-1.88,0.27,23.406535412145043,5.850471814712428,0.509818395309042,
54943.4,28.700000000004366,0.06,0.33,0.89,-0.02,-2.32,0.45,18.31101034896764,5.271259813505995,0.2148527292387245,
54943.5,28.80000000000291,0.28,0.23,0.75,-0.53,-0.49,0.47,17.949247895106915,3.7904413049922283,0.31787884982697334,
54943.6,28.900000000001455,0.42,0.11,0.85,-0.08,-0.73,-0.01,17.740028184870507,3.3770713959852583,0.33736927527091926,
54943.7,29.0,0.22,0.10,0.88,0.34,0.57,-0.01,19.178910292297633,3.3087607885125094,0.4857936306769144,
54943.8,29.10000000000582,0.33,0.20,0.82,0.76,-0.30,-0.08,17.90448547152361,3.5904323037176917,0.3262568112274571,
54943.9,29.200000000004366,0.23,0.27,0.73,0.51,0.02,0.04,18.48842070053578,3.578032955728773,0.552255042144856,
54944.0,29.30000000000291,0.16,0.26,0.67,0.39,0.54,-0.05,18.194661304899302,3.9699821799853616,0.628298913230331,
54944.1,29.400000000001455,0.13,0.44,0.66,-0.21,0.65,-0.14,17.69327838474261,4.237671712853777,0.7546297130650451,
54944.2,29.5,0.21,0.33,0.70,-1.07,0.62,0.01,17.112363951248817,4.4052291321961325,0.6376237174655149,
54944.3,29.60000000000582,0.11,0.29,0.83,-1.47,0.56,-0.11,13.116047422909084,4.464955732103997,0.38620251431142133,
54944.4,29.700000000004366,0.11,0.19,1.08,-1.31,0.79,-0.27,12.093593345238627,4.819816933989346,0.08493329231414684,
54944.5,29.80000000000291,-0.03,-0.04,1.11,-1.29,0.85,-0.07,14.057528232232011,0.6651258539238502,0.493528188508973,
54944.6,29.900000000001455,0.09,-0.23,1.66,-0.73,0.05,0.02,16.270307311172704,0.7546137263836068,0.5663434934968711,
54944.7,30.0,-0.07,-0.11,0.83,0.17,-0.21,-0.02,19.944508015992774,0.690072532106396,0.7398804301445578,
54944.8,30.10000000000582,-0.07,-0.16,0.98,-0.19,-0.01,0.17,18.118898973171632,0.7491862828418264,0.7465440745046704,
54944.9,30.200000000004366,-0.09,-0.17,0.88,0.01,-0.01,-0.10,18.538330561299205,0.7429277513970169,0.7890972430561376,
54945.0,30.30000000000291,-0.06,-0.17,0.93,-0.04,-0.08,-0.02,19.126614964493847,0.7611963270748654,0.7579988603981677,
54945.1,30.400000000001455,-0.10,-0.18,0.89,-0.04,0.01,0.02,19.47168713799603,0.7581816550028142,0.6441299389997072,
54945.2,30.5,-0.07,-0.18,0.89,-0.04,0.02,0.01,18.32459822206206,0.7223884396394097,0.7649244965903218,
54945.3,30.60000000000582,-0.11,-0.18,0.91,-0.01,0.04,0.04,19.68679252697097,0.7729461811252413,0.7254252386421511,
54945.4,30.700000000004366,-0.10,-0.18,0.91,-0.02,0.02,0.04,18.746228954112343,0.7295902522210108,0.7426464633773345,
54945.5,30.80000000000291,-0.09,-0.17,0.91,-0.00,-0.02,-0.00,19.09569061332949,0.8197448404024649,0.6756817263011717,
54945.6,30.900000000001455,-0.10,-0.19,0.91,-0.02,-0.01,0.02,17.92830443739731,0.7013144247192864,0.7684700942065247,
54945.7,31.0,-0.09,-0.18,0.90,-0.01,-0.01,0.02,18.268710956167652,0.7597919230008355,0.7481521718516361,
54945.8,31.10000000000582,-0.11,-0.18,0.90,0.01,0.01,-0.00,20.362966385082505,0.814951228432853,0.749953590335503,
54945.9,31.200000000004366,-0.08,-0.18,0.91,0.04,0.01,-0.01,18.1178199571582,0.711108718663259,0.774507001501393,
54946.0,31.30000000000291,-0.10,-0.17,0.91,0.02,0.02,0.01,19.189572689353977,0.6694778329259573,0.6867090333652524,
54946.1,31.400000000001455,-0.09,-0.17,0.90,-0.01,0.01,0.04,19.67803089742467,0.7013144247192864,0.6857259515178807,
54946.2,31.5,-0.10,-0.17,0.90,-0.01,0.05,0.02,18.968798064189517,0.7344756168654858,0.6907955121368214,
54946.3,31.60000000000582,-0.10,-0.17,0.90,-0.00,-0.00,0.02,18.20700414675627,0.6972295515608824,0.7833996362279014,
54946.4,31.700000000004366,-0.10,-0.17,0.90,-0.00,0.01,0.02,18.11828910245115,0.7717003900245825,0.7529871243889414,
54946.5,31.80000000000291,-0.10,-0.18,0.91,0.00,0.00,0.00,19.39908760741082,0.6465793752356602,0.7800787190584251,
54946.6,31.900000000001455,-0.10,-0.17,0.91,0.01,-0.00,0.00,18.83595763426962,0.6840704039228975,0.7415546732027805,
54946.7,32.0,-0.10,-0.17,0.90,-0.00,0.01,0.01,18.177282525174107,0.6412254300168443,0.7435301508607979,
54946.8,32.10000000000582,-0.11,-0.17,0.90,-0.01,0.00,0.01,18.721030954517435,0.7179650159575046,0.6932262006068335,
54946.9,32.200000000004366,-0.10,-0.17,0.91,-0.00,-0.00,-0.00,19.17802388151605,0.7234238130118699,0.737860669370229,
54947.0,32.30000000000291,-0.10,-0.17,0.90,-0.02,0.02,0.00,18.814677780924125,0.7730265514809866,0.7736014667746673,
54947.1,32.400000000001455,-0.10,-0.16,0.90,-0.02,0.01,0.02,18.704437976052635,0.7996152149269371,0.6921576969233441,
54947.2,32.5,-0.10,-0.16,0.91,-0.01,0.02,-0.00,18.97603488613994,0.7179650159575046,0.6821131508283611,
54947.3,32.60000000000582,-0.10,-0.17,0.90,-0.01,0.04,0.02,18.518641958847848,0.6806119660238512,0.7218342379976338,
54947.4,32.700000000004366,-0.11,-0.17,0.91,-0.00,0.02,0.01,19.237671376754516,0.7787463768040901,0.7249518615301048,
54947.5,32.80000000000291,-0.11,-0.17,0.91,-0.00,0.02,0.01,19.421650290333208,0.7548301115017354,0.698760052844543,
54947.6,32.900000000001455,-0.10,-0.17,0.91,-0.01,0.01,0.01,18.8880173655151,0.6894311204720536,0.7264096285506337,
54947.7,33.0,-0.11,-0.16,0.91,-0.00,0.00,-0.01,19.335325184749284,0.6840704039228975,0.7181476247858207,
54947.8,33.10000000000582,-0.11,-0.16,0.91,-0.01,0.01,0.01,18.221651955846372,0.6322850131430506,0.6894287461459951,
54947.9,33.200000000004366,-0.11,-0.16,0.90,-0.01,0.01,0.01,19.313213093631003,0.6776066060210131,0.7439996953006269,
54948.0,33.30000000000291,-0.10,-0.16,0.91,-0.01,0.01,0.01,18.35867642287973,0.5554205181035716,0.7127132626039323,
54948.1,33.400000000001455,-0.12,-0.16,0.91,-0.01,0.02,0.01,18.860638907523786,0.6292824903396833,0.6963223023383474,
54948.2,33.5,-0.11,-0.16,0.90,-0.01,0.01,0.01,18.550797826508703,0.6948496595778421,0.6683069482354586,
54948.3,33.60000000000582,-0.12,-0.16,0.91,-0.01,0.03,0.01,18.63884384826484,0.6369506590872955,0.8049100906046581,
54948.4,33.700000000004366,-0.11,-0.17,0.90,-0.01,0.02,0.01,19.73131774616181,0.6981910433641914,0.7689309173049257,
54948.5,33.80000000000291,-0.11,-0.16,0.91,-0.01,0.02,0.01,18.613484359463705,0.723559300800054,0.7679000224511792,
54948.6,33.900000000001455,-0.11,-0.16,0.90,-0.01,0.02,0.01,19.351744107444166,0.7017946106912756,0.7159745339741334,
54948.7,34.0,-0.11,-0.16,0.91,-0.02,0.01,0.01,19.232612927005004,0.6590283032384877,0.7159841200209172,
54948.8,34.10000000000582,-0.11,-0.16,0.91,-0.02,0.00,0.01,19.017260580851282,0.7018773168361536,0.7085439052967024,
54948.9,34.200000000004366,-0.11,-0.16,0.91,-0.01,-0.00,0.01,18.939390169696594,0.7386036590670009,0.6822433595218214,
54949.0,34.30000000000291,-0.11,-0.17,0.91,-0.01,-0.01,0.01,18.35060216995617,0.6304849985731874,0.7919914817325744,
54949.1,34.400000000001455,-0.11,-0.17,0.91,-0.01,0.01,0.01,18.710106894403356,0.6530321942829087,0.7381612475816592,
54949.2,34.5,-0.11,-0.16,0.90,-0.02,0.01,0.01,18.585959754610467,0.65427412825286,0.7332038983176922,
54949.3,34.60000000000582,-0.12,-0.17,0.90,-0.00,-0.01,-0.00,18.919751583992852,0.6606143524104187,0.7057745959153535,
54949.4,34.700000000004366,-0.12,-0.16,0.91,-0.02,0.02,0.01,18.986516268130917,0.6393028450687253,0.7106986542930744,
54949.5,34.80000000000291,-0.12,-0.17,0.90,-0.02,0.01,0.01,19.81591532077184,0.7216081764190542,0.7067138234169071,
54949.6,34.900000000001455,-0.12,-0.17,0.91,-0.02,0.01,0.02,18.904909415281526,0.6586601305923399,0.8327537875010912,
54949.7,35.0,-0.12,-0.17,0.90,-0.01,0.02,0.00,19.774266105218672,0.5684143387016931,0.7003290794722661,
54949.8,35.10000000000582,-0.12,-0.17,0.90,-0.01,-0.02,0.00,20.128300971517692,0.5872043598536124,0.7621406478179336,
54949.9,35.200000000004366,-0.12,-0.16,0.91,-0.01,0.01,0.01,19.096120024758957,0.6439795013576507,0.7165442784299847,
54950.0,35.30000000000291,-0.12,-0.16,0.91,-0.01,-0.01,0.00,19.41220749940614,0.6491854845012128,0.7350439790415663,
54950.1,35.400000000001455,-0.12,-0.17,0.90,-0.02,0.03,0.01,19.394994199535095,0.6359657904246442,0.7725056107226487,
54950.2,35.5,-0.12,-0.17,0.91,-0.01,0.00,0.01,20.29394490975079,0.7283459165464778,0.7706538012413351,
54950.3,35.60000000000582,-0.09,-0.18,0.99,-0.00,0.00,0.03,19.77796248353202,0.627410876740709,0.7720902822611349,
54950.4,35.700000000004366,-0.09,-0.10,1.08,0.22,-0.03,-0.05,20.19691560610184,0.690072532106396,0.7285305392569663,
54950.5,35.80000000000291,-0.04,-0.13,1.20,0.60,-0.45,0.06,17.665132323308537,0.5707221268524791,0.7251998458184968,
54950.6,35.900000000001455,-0.05,-0.01,1.07,1.03,-0.22,0.12,16.63605121415536,0.5294757709812657,0.5893051115536223,
54950.7,36.0,-0.04,0.09,0.98,1.33,-0.72,0.06,15.030246172302036,0.25314899641794847,0.47153885708350524,
54950.8,36.10000000000582,-0.01,0.20,0.90,1.22,-0.89,0.07,14.418463857152052,5.997905895748941,0.3627843144357878,
54950.9,36.200000000004366,0.05,0.33,0.72,0.83,-0.77,0.07,14.462990700404948,5.119107963801023,0.35523314775128867,
54951.0,36.30000000000291,0.05,0.29,0.65,0.15,-0.16,-0.01,15.029031904949832,4.266431185577327,0.36106062544573064,
54951.1,36.400000000001455,0.01,0.23,0.74,-0.13,-0.23,0.06,15.66152291445503,4.2885213698549105,0.477462247645802,
54951.2,36.5,0.18,0.29,0.70,-0.17,-0.28,0.17,15.731020310202387,4.058604812936082,0.531611799575305,
54951.3,36.60000000000582,0.13,0.26,0.68,-0.46,0.14,0.12,16.825557940228908,3.9852978570561044,0.45550594270253236,
54951.4,36.700000000004366,0.10,0.23,0.52,-1.07,0.19,0.23,16.053575925631026,3.9400078332038575,0.3814062236164269,
54951.5,36.80000000000291,0.16,0.31,0.99,0.00,1.84,-0.38,17.064398612315642,3.6530721132417208,0.3584190729581741,
54951.6,36.900000000001455,-0.06,0.27,0.42,-0.47,2.27,-0.48,19.54855237607123,5.316187302171839,0.30094116863642445,
54951.7,37.0,-0.28,0.25,1.97,-0.05,4.48,0.09,24.431150198056578,5.943318969323201,0.5403827809040246,
54951.8,37.10000000000582,-0.23,0.35,0.99,0.47,-0.10,-0.05,33.70810140010855,5.932205085735826,0.6681413632279001,
54951.9,37.200000000004366,-0.53,0.30,0.70,-0.07,0.04,0.07,34.933058841160765,5.935075782098424,0.6796809636537051,
54952.0,37.30000000000291,-0.40,0.27,0.80,0.07,0.24,0.06,37.44488216031665,5.958288460071003,0.699976186949382,
54952.1,37.400000000001455,-0.44,0.29,0.78,-0.03,0.06,0.06,35.66055243542927,5.944548207453568,0.6954036115838886,
54952.2,37.5,-0.38,0.23,0.85,-0.23,-0.49,0.15,35.71257201602819,5.917079676107891,0.6701031492483971,
54952.3,37.60000000000582,-0.36,0.27,0.83,-0.40,-0.73,0.20,33.21617226593094,5.922439547580641,0.6974318700893367,
54952.4,37.700000000004366,-0.27,0.17,1.00,-0.35,-0.89,0.17,30.379830480106367,5.878367294409677,0.6259513811867179,
54952.5,37.80000000000291,-0.20,0.23,1.01,-0.16,-1.56,0.13,27.229373845169487,5.872334115877801,0.6021671259241427,
54952.6,37.900000000001455,-0.12,0.31,1.05,0.31,-2.84,0.34,21.296978658955357,5.8735647661554795,0.4592814185502318,
54952.7,38.0,0.18,0.17,0.40,-0.36,-2.19,0.62,16.04379942532317,4.035120055102862,0.2729165880322458,
54952.8,38.10000000000582,0.47,0.09,0.76,-0.16,-1.40,0.24,20.932673025679257,3.2384316588511,0.5281883329330875,
54952.9,38.200000000004366,0.44,0.14,0.76,-0.07,0.49,-0.15,21.558752283005617,3.1728883357815567,0.5454898891680038,
54953.0,38.30000000000291,0.49,0.15,0.88,0.08,0.55,0.01,19.282256092065573,3.2652328519752327,0.46671984837348385,
54953.1,38.400000000001455,0.26,0.14,0.78,0.63,0.02,-0.13,21.326108411991154,3.2933680913766485,0.558997652378994,
54953.2,38.5,0.28,0.08,0.68,1.06,-0.55,0.30,18.79988031876799,3.602830628700107,0.5162297138324164,
54953.3,38.60000000000582,0.42,0.29,0.60,0.83,0.39,0.04,22.10467145198046,3.8163335958133455,0.8268017225991148,
54953.4,38.700000000004366,0.09,0.51,0.46,-0.22,2.19,0.03,19.705654010968527,4.0814795958867744,0.8354103361726699,
54953.5,38.80000000000291,0.33,0.42,0.59,-1.52,0.39,0.02,17.5608826657432,4.300425466131847,0.8176926522528252,
54953.6,38.900000000001455,0.40,0.21,0.98,-1.64,0.76,-0.37,12.851069994362337,3.8985624588364662,0.4831640851532699,
54953.7,39.0,0.13,0.06,1.04,-1.31,0.90,-0.50,10.263985580660176,3.0810606338076862,0.16175569708670992,
54953.8,39.10000000000582,0.01,-0.13,1.12,-0.99,0.46,-0.11,12.761974768820068,1.0121970114513341,0.5096697935552517,
54953.9,39.200000000004366,0.08,-0.25,1.13,-0.45,0.13,0.17,15.491410523254492,1.0410804111602976,0.5678712129645774,
54954.0,39.30000000000291,0.00,-0.15,0.97,0.02,0.37,0.04,15.961838866496555,0.8952031604722264,0.6114300294539237,
54954.1,39.400000000001455,-0.06,-0.20,0.92,-0.27,0.07,0.15,17.1413943423515,0.8759291513980824,0.6180909303615586,
54954.2,39.5,-0.03,-0.17,0.92,-0.15,0.03,-0.03,19.330569055255463,0.9157368950451933,0.700388144817002,
54954.3,39.60000000000582,-0.07,-0.21,0.90,-0.20,0.14,-0.03,18.393504288199136,0.8907435135929266,0.7578094665905575,
54954.4,39.700000000004366,-0.07,-0.23,0.90,-0.13,-0.09,-0.03,19.880769602809647,0.9616042917462311,0.7363616047572601,
54954.5,39.80000000000291,-0.08,-0.26,0.88,-0.09,-0.13,0.04,21.33243071007146,0.864053291612247,0.7409261971816841,
54954.6,39.900000000001455,-0.04,-0.25,0.87,-0.06,0.05,-0.02,19.22797181192026,0.9262463721171125,0.7673041942705884,
54954.7,40.0,-0.05,-0.25,0.90,-0.04,-0.02,0.00,20.705180511166766,1.0526854981762517,0.767531824595474,
54954.8,40.10000000000582,-0.03,-0.25,0.90,-0.03,0.04,0.00,20.441262191948912,0.9311551381756791,0.7891378607042158,
54954.9,40.200000000004366,-0.03,-0.26,0.89,-0.05,0.04,0.03,20.532554638914274,0.9410885155364936,0.6796555876768928,
54955.0,40.30000000000291,-0.05,-0.27,0.89,-0.00,-0.01,0.03,20.33861843882224,0.9357091666184091,0.7608676674763456,
54955.1,40.400000000001455,-0.04,-0.25,0.92,0.02,0.05,0.01,21.329120938285293,0.9357091666184091,0.7175331861641082,
54955.2,40.5,-0.06,-0.25,0.88,0.03,-0.02,0.04,19.944134476080933,1.057174533761814,0.7884166459896318,
54955.3,40.60000000000582,-0.06,-0.26,0.90,0.00,0.08,0.03,21.576053856069233,0.8584166838171887,0.8085050923948072,
54955.4,40.700000000004366,-0.04,-0.24,0.91,-0.01,0.03,0.03,19.455043048011998,0.8945372262141665,0.7578873605376516,
54955.5,40.80000000000291,-0.06,-0.26,0.90,-0.01,-0.10,0.02,21.195841573289794,0.8473876045919684,0.7457517176415573,
54955.6,40.900000000001455,-0.04,-0.24,0.89,-0.00,-0.04,-0.02,20.309418997105755,0.9381643551788824,0.7471188369800374,
54955.7,41.0,-0.07,-0.25,0.90,0.01,-0.03,-0.03,20.871332013074777,0.8874050813075604,0.6504218013033467,
54955.8,41.10000000000582,-0.04,-0.25,0.89,0.01,0.02,-0.03,20.01389017657487,0.9410233192184622,0.7436701554352494,
54955.9,41.200000000004366,-0.06,-0.24,0.89,0.00,-0.01,0.02,20.083162101621348,0.9222034551852301,0.7015791157631494,
54956.0,41.30000000000291,-0.06,-0.25,0.90,-0.00,0.02,0.00,21.365752970583554,0.8500707231882751,0.7080571372276114,
54956.1,41.400000000001455,-0.05,-0.24,0.90,-0.00,0.03,0.02,21.82862570112924,0.9831790796829746,0.7200615439393035,
54956.2,41.5,-0.06,-0.24,0.90,-0.00,0.00,0.02,20.185692953178496,0.9028857289387028,0.7786100859671827,
54956.3,41.60000000000582,-0.06,-0.24,0.89,-0.01,0.03,-0.00,21.12051135744587,0.8495302783988798,0.718456365823892,
54956.4,41.700000000004366,-0.07,-0.24,0.89,-0.01,0.02,0.01,21.080505212162254,0.8960553845713439,0.7277673624298304,
54956.5,41.80000000000291,-0.08,-0.25,0.89,-0.02,0.10,0.01,21.625755478133012,0.8859750808522963,0.7007382888660634,
54956.6,41.900000000001455,-0.07,-0.24,0.89,-0.01,-0.03,0.02,20.124825465081678,0.864053291612247,0.7973019981053834,
54956.7,42.0,-0.07,-0.25,0.90,-0.01,-0.00,-0.00,21.217205282505986,0.7805532400662448,0.7585618462792831,
54956.8,42.10000000000582,-0.08,-0.23,0.88,-0.03,0.04,0.01,18.97824280590803,0.8064647384496889,0.7612316611499947,
54956.9,42.200000000004366,-0.07,-0.25,0.89,-0.02,-0.04,0.02,21.253220932366933,0.8554414951388588,0.7410346277261959,
54957.0,42.30000000000291,-0.09,-0.25,0.89,-0.03,-0.00,0.01,20.796446811895535,0.8186389269229738,0.7837176674986641,
54957.1,42.400000000001455,-0.08,-0.23,0.90,-0.04,-0.03,0.03,21.21091228589662,0.9637773775526536,0.7582487406815334,
54957.2,42.5,-0.10,-0.28,0.90,-0.08,-0.01,0.01,20.822418207307237,0.8306873705995927,0.7615907594318064,
54957.3,42.60000000000582,-0.04,-0.22,0.90,-0.01,-0.08,-0.03,22.345111322166197,0.9306603202742743,0.6923573818680208,
54957.4,42.700000000004366,-0.04,-0.26,0.87,0.07,0.09,-0.03,20.496948553382282,0.8962735822549857,0.7731471280921495,
54957.5,42.80000000000291,-0.08,-0.22,0.91,-0.03,0.02,0.08,21.794524541728364,0.8780336535939792,0.7531456792211129,
54957.6,42.900000000001455,-0.08,-0.25,0.90,-0.03,0.01,0.07,21.1031111450421,0.8963936032732163,0.7160702467534258,
54957.7,43.0,-0.08,-0.24,0.90,0.03,0.04,0.02,21.794524541728364,0.8780336535939792,0.7531456792211129,
54957.8,43.10000000000582,-0.05,-0.25,0.90,0.01,-0.01,0.04,22.168265606492536,0.8285233789437929,0.7486936014631317,
54957.9,43.200000000004366,-0.08,-0.25,0.89,0.00,0.11,0.03,20.183525460137037,0.8534973117988457,0.7756749291188424,
54958.0,43.30000000000291,-0.08,-0.24,0.90,0.01,0.01,-0.00,20.536791375480252,0.8155000031573668,0.7103226235347494,
54958.1,43.400000000001455,-0.10,-0.25,0.91,-0.00,-0.02,0.01,21.29029356303008,0.8843919220458405,0.755350513821934,
54958.2,43.5,-0.09,-0.26,0.90,0.01,0.06,0.01,21.4984534327472,0.8322547690059566,0.7023739058805011,
54958.3,43.60000000000582,-0.08,-0.24,0.90,0.01,0.04,-0.02,21.94778120904252,0.7126205232502083,0.7151821469397209,
54958.4,43.700000000004366,-0.10,-0.24,0.89,-0.01,0.02,0.02,22.142750506655673,0.8101946672680689,0.6996991860460152,
54958.5,43.80000000000291,-0.10,-0.25,0.89,-0.01,0.04,0.03,22.352013332136323,0.717666212323932,0.7574993787763505,
54958.6,43.900000000001455,-0.10,-0.24,0.90,-0.01,0.02,0.02,21.436814128969818,0.7568603761024815,0.8158223205414145,
54958.7,44.0,-0.12,-0.24,0.90,-0.02,-0.00,0.09,19.717385729350635,0.8330798373986072,0.7645439567438561,
54958.8,44.10000000000582,-0.11,-0.25,0.88,-0.03,0.07,0.05,21.346423588039286,0.7165899436334613,0.7870002034032751,
54958.9,44.200000000004366,-0.10,-0.23,0.89,-0.01,-0.03,0.02,21.83400558761493,0.781585026492494,0.7470185781062414,
54959.0,44.30000000000291,-0.10,-0.24,0.89,-0.01,0.04,-0.00,20.533728351178702,0.8314577485235312,0.7588389547827498,
54959.1,44.400000000001455,-0.09,-0.24,0.89,-0.00,-0.03,-0.02,20.979153939089155,0.7624547142923822,0.722328102046252,
54959.2,44.5,-0.12,-0.25,0.88,-0.01,0.06,0.00,20.89200086157379,0.7635463725958145,0.7712774018803094,
54959.3,44.60000000000582,-0.10,-0.25,0.89,-0.02,0.05,0.01,21.273340123262262,0.7477789497660425,0.7728560520049755,
54959.4,44.700000000004366,-0.11,-0.24,0.90,-0.02,-0.01,-0.00,22.460616643360442,0.7683255260774261,0.7509259384784437,
54959.5,44.80000000000291,-0.10,-0.23,0.91,-0.01,0.06,-0.01,21.426341264901016,0.7387119610862986,0.7754953861033872,
54959.6,44.900000000001455,-0.10,-0.25,0.88,0.01,-0.07,0.00,23.321580135145215,0.8256535809436443,0.776312196470598,
54959.7,45.0,-0.13,-0.24,0.89,-0.03,0.07,-0.01,22.35235558056466,0.7399965773615547,0.7236986838420346,
54959.8,45.10000000000582,-0.09,-0.24,0.91,-0.03,0.03,-0.00,21.46768734633519,0.7389860197726326,0.7694566211801825,
54959.9,45.200000000004366,-0.09,-0.23,0.89,0.01,-0.17,-0.09,22.87924386862468,0.9175100579839435,0.7709572246716716,
54960.0,45.30000000000291,-0.15,-0.25,0.97,0.12,0.42,-0.01,23.001186925895805,0.8856526389030238,0.7461467844272618,
54960.1,45.400000000001455,-0.01,-0.24,1.06,0.43,-0.47,-0.03,21.88231706195667,0.8162253988591066,0.7214716007831277,
54960.2,45.5,0.07,-0.10,1.21,0.95,-0.25,-0.16,20.46236056763735,0.8570293837359756,0.6540071792801155,
54960.3,45.60000000000582,0.07,-0.04,1.11,1.33,-0.43,-0.35,18.289562597284824,0.7587772347642364,0.5502406096012056,
54960.4,45.700000000004366,-0.06,0.11,0.96,1.43,-0.82,-0.32,16.66409313464132,0.5734977278479367,0.37599253518904946,
54960.5,45.80000000000291,-0.22,0.11,0.75,1.18,-0.62,-0.09,13.924173225006935,6.107918931176505,0.07007484308285904,
54960.6,45.900000000001455,-0.12,0.28,0.49,0.82,-1.32,0.44,14.002746159236052,4.293115553414428,0.35286238636760814,
54960.7,46.0,0.15,0.31,0.54,-0.10,-0.22,1.03,17.22668279153012,3.7154391886545093,0.6758347786592565,
54960.8,46.10000000000582,0.33,0.24,0.60,-0.21,-0.14,0.81,16.617177859071013,3.9609913144596627,0.5983726052517797,
54960.9,46.200000000004366,0.48,0.21,0.44,-0.64,-0.12,0.45,18.445901983909597,3.6583511878128703,0.5316336079400077,
54961.0,46.30000000000291,0.37,-0.03,1.10,0.06,1.21,-0.14,20.35385467178146,3.623420077663577,0.5750721032672088,
54961.1,46.400000000001455,0.33,0.47,0.65,0.33,0.45,-0.18,18.503561819282254,3.7594767620444487,0.46846892719111133,
54961.2,46.5,0.22,0.39,0.60,0.29,1.99,-0.58,17.585238127474987,4.362937704796876,0.5235149435207658,
54961.3,46.60000000000582,-0.61,0.36,0.36,-0.34,5.49,-0.61,22.912199807089674,5.503495436736389,0.6369078809014403,
54961.4,46.700000000004366,-0.60,0.36,0.52,1.30,0.11,-0.85,38.337381235551284,5.8552239479636965,0.7041217629983877,
54961.5,46.80000000000291,-0.41,0.39,0.78,-0.17,0.34,0.51,37.82359184424451,5.757566791405768,0.7190368941059657,
54961.6,46.900000000001455,-0.48,0.39,0.71,-0.12,0.11,0.29,38.0536910167726,5.7227927580102405,0.7314425339598877,
54961.7,47.0,-0.40,0.43,0.75,0.02,-0.29,0.17,38.861402445099685,5.735615249145301,0.7546865392117288,
54961.8,47.10000000000582,-0.38,0.43,0.80,-0.17,-0.18,0.31,38.41761705259711,5.713718604502799,0.7553211821593477,
54961.9,47.200000000004366,-0.33,0.43,0.78,-0.43,-0.70,0.41,37.47745188776847,5.756363642062191,0.7613548847234811,
54962.0,47.30000000000291,-0.23,0.38,0.81,-0.70,-0.71,0.52,35.00340840546818,5.708732331993164,0.7297276653519971,
54962.1,47.400000000001455,-0.32,0.29,0.92,-0.57,-0.79,0.38,29.661606497288712,5.700562040192132,0.7215205701104768,
54962.2,47.5,-0.02,0.27,1.13,-0.43,-1.83,0.55,28.43872008371685,5.655483204318734,0.6615107777089457,
54962.3,47.60000000000582,-0.00,0.37,0.87,-0.28,-2.88,0.99,21.25277864186234,5.36074441997965,0.5059609559448013,
54962.4,47.700000000004366,0.48,0.05,0.61,-0.58,-1.13,0.79,18.20903072653786,4.176277734933039,0.40443706896610654,
54962.5,47.80000000000291,0.49,0.10,0.74,0.05,-0.10,-0.17,19.546981864216274,3.50214200321954,0.4907543473056854,
54962.6,47.900000000001455,0.47,0.12,0.68,0.06,-0.14,-0.29,18.011085475339904,3.4915945772807224,0.3956012295677939,
54962.7,48.0,0.53,0.13,0.84,0.19,0.08,-0.25,19.82281766046391,3.554939479299292,0.516192376655904,
54962.8,48.10000000000582,0.35,0.07,0.81,0.23,0.13,-0.01,19.475525666846583,3.64869115798213,0.4601264468390723,
54962.9,48.200000000004366,0.36,0.09,0.71,0.84,-0.54,-0.19,19.642209651665972,3.7850937623830774,0.5164939355698855,
54963.0,48.30000000000291,0.34,0.22,0.66,0.33,-0.08,0.13,19.51823762535952,3.876923761046233,0.728807687339605,
54963.1,48.400000000001455,0.42,0.42,0.50,-0.23,0.71,-0.08,21.205881259688315,3.9316290026508205,0.8022509842033799,
54963.2,48.5,0.19,0.21,0.82,-0.82,1.31,-0.67,19.42413189823422,4.0862636898238955,0.7100411563697872,
54963.3,48.60000000000582,0.30,0.28,0.62,-1.47,1.58,-0.31,14.342973889678527,4.175902780676742,0.6924019670876193,
54963.4,48.700000000004366,0.22,0.16,0.84,-1.82,1.14,-0.63,12.34749367280664,5.545750330659215,0.1438282871566636,
54963.5,48.80000000000291,-0.12,-0.06,1.03,-1.48,1.89,-0.53,15.709926798047151,0.7420309640217917,0.48611550171230733,
54963.6,48.900000000001455,-0.11,-0.36,1.13,-0.67,-0.23,-0.37,20.433802876606205,0.7954424684574617,0.6689320188189988,
54963.7,49.0,-0.07,-0.37,0.97,-0.31,-0.11,-0.04,22.3689651079347,0.897244701774673,0.7019912102963094,
54963.8,49.10000000000582,-0.02,-0.26,0.93,-0.05,0.36,-0.01,21.806847548419277,1.0317909193832997,0.7306808281285075,
54963.9,49.200000000004366,-0.07,-0.28,0.87,-0.08,0.00,0.03,23.33256951130758,0.9934829712832243,0.7607640559048895,
54964.0,49.30000000000291,-0.08,-0.31,0.90,-0.05,-0.07,0.08,22.64841054025646,1.028312733855441,0.7712382769434941,
54964.1,49.400000000001455,-0.06,-0.29,0.87,-0.02,-0.01,0.07,23.093555378070306,0.9731601099110416,0.7555293181127645,
54964.2,49.5,-0.09,-0.30,0.89,-0.03,0.05,0.03,23.759196114346967,0.9744578587946137,0.7954835346945793,
54964.3,49.60000000000582,-0.09,-0.32,0.87,-0.01,0.04,0.00,23.483315353671852,0.9798472593563367,0.8059772231338175,
54964.4,49.700000000004366,-0.08,-0.30,0.87,-0.01,0.01,0.01,23.940162906713898,0.9941827524382646,0.7224261522033697,
54964.5,49.80000000000291,-0.08,-0.30,0.87,0.01,-0.03,0.00,22.883594560295812,0.9863940677267871,0.7386260088039956,
54964.6,49.900000000001455,-0.07,-0.29,0.89,-0.04,0.04,0.01,22.989691167999627,0.9680129653572029,0.7443224832050199,
54964.7,50.0,-0.08,-0.31,0.87,-0.01,-0.00,0.01,23.681727132960553,0.9236373130246589,0.733603101903725,
54964.8,50.10000000000582,-0.08,-0.31,0.87,0.00,-0.04,-0.02,24.539221666548432,1.0283515616686747,0.8105487028083403,
54964.9,50.200000000004366,-0.07,-0.30,0.87,-0.01,0.05,0.01,23.322369090639143,0.9624165786453136,0.7596820941957834,
54965.0,50.30000000000291,-0.09,-0.31,0.88,0.00,0.05,-0.00,23.53897618844116,0.951877465420692,0.7826649872330068,
54965.1,50.400000000001455,-0.08,-0.30,0.87,-0.01,0.00,0.04,23.655439120844914,0.8957778637644075,0.7947360697100333,
54965.2,50.5,-0.09,-0.30,0.87,-0.02,0.04,0.02,22.538972913600123,1.0464088374201492,0.7655903350071986,
54965.3,50.60000000000582,-0.09,-0.30,0.87,-0.00,-0.02,0.01,23.430426799356432,1.0181756072471317,0.7287033379506109,
54965.4,50.700000000004366,-0.08,-0.30,0.88,-0.00,0.01,0.01,23.693857853882722,0.9369723352687631,0.7131357676923706,
54965.5,50.80000000000291,-0.08,-0.31,0.88,-0.01,-0.03,0.02,23.217366345044393,0.9437916591901636,0.7605489651880328,
54965.6,50.900000000001455,-0.07,-0.30,0.88,-0.01,-0.01,0.03,23.536339987347226,0.9967751130371326,0.7286405084883024,
54965.7,51.0,-0.08,-0.30,0.87,-0.01,0.01,0.01,24.748824214495524,0.9501424191571219,0.7710120346553568,
54965.8,51.10000000000582,-0.08,-0.30,0.87,-0.01,-0.00,0.01,23.37655449376576,0.9115475119534111,0.7614995372875317,
54965.9,51.200000000004366,-0.08,-0.30,0.88,-0.02,0.01,0.01,22.522293400095823,0.8584166838171887,0.7654605465725656,
54966.0,51.30000000000291,-0.08,-0.30,0.88,-0.02,0.03,0.01,22.89347723697735,0.9586978541174617,0.7809487634749344,
54966.1,51.400000000001455,-0.08,-0.30,0.88,-0.02,0.02,0.02,23.322369090639143,0.9624165786453136,0.7596820941957834,
54966.2,51.5,-0.08,-0.31,0.87,-0.02,0.01,0.02,24.174819544310978,0.8369916800919504,0.796115300418817,
54966.3,51.60000000000582,-0.08,-0.30,0.87,-0.01,-0.01,0.01,24.64695721585121,0.9272952180016122,0.766748962732573,
54966.4,51.700000000004366,-0.09,-0.31,0.88,-0.01,-0.00,0.00,23.55057536452135,0.9041994744354311,0.7532146608398742,
54966.5,51.80000000000291,-0.08,-0.30,0.87,-0.01,0.01,0.01,23.387592864593824,1.0034076030545898,0.77001243496171,
54966.6,51.900000000001455,-0.09,-0.31,0.87,-0.00,0.00,0.00,23.933008586469025,0.8724261053088935,0.7246119763551092,
54966.7,52.0,-0.09,-0.31,0.88,-0.00,0.00,0.02,23.87968383375291,0.9080794710439121,0.6898099159028509,
54966.8,52.10000000000582,-0.08,-0.31,0.87,0.00,0.02,-0.01,24.445805366156375,0.9913956616166231,0.7557866851596229,
54966.9,52.200000000004366,-0.09,-0.31,0.87,0.01,0.04,-0.02,24.774531277099875,0.964358872712157,0.7563294015478268,
54967.0,52.30000000000291,-0.07,-0.29,0.88,-0.00,-0.00,0.02,23.03922524739059,0.9958859865519019,0.786698169251686,
54967.1,52.400000000001455,-0.09,-0.30,0.88,-0.05,0.01,0.00,23.94017752649299,0.9328688910485368,0.7607698847389487,
54967.2,52.5,-0.08,-0.32,0.87,-0.03,-0.03,0.04,22.672192218662932,0.973794884434799,0.7289899508121414,
54967.3,52.60000000000582,-0.09,-0.31,0.87,0.00,0.00,-0.03,24.880200963818602,0.9641523598584748,0.7666316538348171,
54967.4,52.700000000004366,-0.07,-0.31,0.88,0.00,-0.03,-0.00,24.33962407269266,1.0058288637842359,0.7719854846250968,
54967.5,52.80000000000291,-0.09,-0.31,0.87,-0.02,-0.01,0.02,23.68569399447692,1.012498907348454,0.8348467387763993,
54967.6,52.900000000001455,-0.08,-0.31,0.87,-0.02,0.01,0.01,23.28447122010719,0.9650918038674933,0.7472860712940175,
54967.7,53.0,-0.08,-0.30,0.87,-0.01,-0.00,0.01,23.246492208503202,0.9068127761482864,0.7834344255987301,
54967.8,53.10000000000582,-0.08,-0.30,0.87,-0.00,-0.01,-0.00,24.434146189298286,0.9939565017622677,0.7777024853917468,
54967.9,53.200000000004366,-0.08,-0.31,0.87,-0.02,0.02,0.02,23.49792756819205,0.9604234163073956,0.7632156770719017,
54968.0,53.30000000000291,-0.08,-0.32,0.87,-0.00,-0.04,0.01,23.496893411683168,0.9348672455496284,0.8029883332697536,
54968.1,53.400000000001455,-0.07,-0.31,0.87,-0.01,-0.00,0.03,22.797550306995706,0.9650918038674933,0.7672617316025333,
54968.2,53.5,-0.09,-0.29,0.86,-0.01,0.03,0.03,24.020226893183168,0.9374927520878297,0.7558044600928154,
54968.3,53.60000000000582,-0.07,-0.32,0.87,-0.01,-0.03,0.04,22.694126993563774,0.9882494945291266,0.7676142509867067,
54968.4,53.700000000004366,-0.08,-0.31,0.87,-0.03,-0.01,0.06,23.523598789300927,1.0242852058179706,0.7507453016066987,
54968.5,53.80000000000291,-0.09,-0.31,0.87,-0.02,-0.02,0.04,23.534013682327966,0.9709034780582311,0.7806431924728392,
54968.6,53.900000000001455,-0.07,-0.32,0.86,-0.00,-0.02,0.00,23.9444147976099,0.9369723352687631,0.7041193950664424,
54968.7,54.0,-0.07,-0.31,0.88,-0.02,0.03,-0.01,23.4992127527711,0.9490829273504262,0.7421073379575926,
54968.8,54.10000000000582,-0.07,-0.32,0.86,-0.02,-0.01,0.01,22.68988100453592,0.980169975551033,0.7737475513424137,
54968.9,54.200000000004366,-0.08,-0.32,0.87,-0.02,0.02,0.02,24.36192521128,0.9570675050590148,0.8317381780796903,
54969.0,54.30000000000291,-0.07,-0.31,0.88,-0.01,0.01,0.01,22.888641287765424,0.9598190429839875,0.792461046366764,
54969.1,54.400000000001455,-0.07,-0.33,0.87,-0.02,0.02,0.01,24.050869007168952,0.9316785568277267,0.7781115513744827,
54969.2,54.5,-0.07,-0.33,0.87,-0.02,0.07,0.01,23.47613682018402,0.9771109877951282,0.7560562487128004,
54969.3,54.60000000000582,-0.07,-0.32,0.88,-0.02,0.08,0.00,24.436180143385748,0.9936041129214358,0.7951309639333127,
54969.4,54.700000000004366,-0.05,-0.32,0.94,0.06,0.06,-0.06,23.2720991747629,1.0018321986641097,0.7255928843269913,
54969.5,54.80000000000291,0.00,-0.30,1.09,0.33,-0.24,-0.08,24.326660272219858,0.9689377971002007,0.7631476594905768,
54969.6,54.900000000001455,0.04,-0.21,1.17,0.97,-0.06,-0.28,23.819834172386674,0.9276821150676827,0.7089723802812582,
54969.7,55.0,-0.01,-0.08,1.09,1.47,-0.13,-0.30,21.418884191292506,0.79776977531391,0.6608183236333739,
54969.8,55.10000000000582,-0.12,-0.01,0.99,1.62,-0.74,-0.14,17.958674784070233,0.6476983559189868,0.4384470862366996,
54969.9,55.200000000004366,-0.08,0.12,0.80,1.40,-1.12,-0.00,14.61935703100516,0.13517069864900902,0.1734487500283586,
54970.0,55.30000000000291,0.03,0.25,0.69,0.92,-0.98,0.30,14.027576412196087,4.299652752840203,0.25329046161632623,
54970.1,55.400000000001455,0.15,0.30,0.60,0.33,-0.50,0.47,16.340226436619538,3.899848163230134,0.6114123663175733,
54970.2,55.5,0.26,0.30,0.58,-0.08,-0.23,0.61,18.45848314461402,3.7917760528569557,0.5839258658343579,
54970.3,55.60000000000582,0.40,0.19,0.68,-0.16,-0.05,0.47,17.01456434940372,3.936838305286203,0.4827713304606772,
54970.4,55.700000000004366,0.42,0.20,0.67,-0.48,0.41,0.25,18.41155615367696,3.9362156475592527,0.4294099244063483,
54970.5,55.80000000000291,0.38,0.07,1.08,0.06,-0.48,-0.44,17.867059075292723,3.8612549459863623,0.3893229680083661,
54970.6,55.900000000001455,0.29,0.34,0.79,-0.02,0.82,0.30,18.926893564449504,3.9646929764062064,0.4623141587413504,
54970.7,56.0,0.38,0.24,0.88,0.28,-0.49,-0.00,17.57004553209809,4.277829642272356,0.33901600206168686,
54970.8,56.10000000000582,0.26,0.24,0.67,0.09,1.70,-0.28,17.94096151269491,4.226357051044593,0.340655437991114,
54970.9,56.200000000004366,-0.04,0.38,0.83,-0.17,3.54,-0.61,18.305381722324178,4.816128339305847,0.4415141211520534,
54971.0,56.30000000000291,-0.39,0.35,1.54,1.69,2.80,-0.76,31.38054970837828,5.870683530260039,0.6426742262389229,
54971.1,56.400000000001455,-0.37,0.43,0.82,0.78,-0.14,-0.48,38.41674244388767,5.82423759126659,0.6997068156865227,
54971.2,56.5,-0.58,0.42,0.63,0.02,0.58,0.16,38.99925383901595,5.813600977284833,0.716487778897587,
54971.3,56.60000000000582,-0.56,0.44,0.67,0.20,-0.01,-0.00,40.59900491391384,5.798213916549258,0.7088178573170867,
54971.4,56.700000000004366,-0.56,0.44,0.68,-0.03,0.17,0.09,40.87420335615118,5.825456734610729,0.7281053236287175,
54971.5,56.80000000000291,-0.54,0.43,0.68,-0.32,-0.33,0.26,41.57486500278744,5.842353624186034,0.7209559926393491,
54971.6,56.900000000001455,-0.51,0.43,0.68,-0.30,-0.39,0.39,42.24253898619258,5.755211310787042,0.7457671373813751,
54971.7,57.0,-0.41,0.40,0.81,-0.29,-0.83,0.30,39.39686916494761,5.747705780838977,0.7457545375508007,
54971.8,57.10000000000582,-0.36,0.41,0.76,-0.64,-0.88,0.55,35.43813482676536,5.695766270325811,0.7349620540469453,
54971.9,57.200000000004366,-0.20,0.37,0.97,-0.10,-2.59,0.51,30.904184182728397,5.674244091652853,0.6927774487938336,
54972.0,57.30000000000291,0.05,0.39,0.75,-0.12,-3.13,1.12,22.473008254348148,5.337842020623929,0.6767664194358638,
54972.1,57.400000000001455,0.37,0.26,0.70,-0.76,-1.23,0.93,18.61292293005051,4.444459524843728,0.5630163453653593,
54972.2,57.5,0.37,0.19,0.61,-0.34,-0.95,0.21,17.405990348153132,3.730758385429357,0.5799434722783574,
54972.3,57.60000000000582,0.45,0.22,0.79,-0.03,0.22,-0.17,21.421601247339098,3.5836099178699232,0.5941888960656799,
54972.4,57.700000000004366,0.46,0.16,0.80,0.18,0.29,-0.06,19.594103704941443,3.6191682763961954,0.495236110837483,
54972.5,57.80000000000291,0.50,0.21,0.71,0.82,-1.50,-0.38,19.33327442519761,3.623420077663577,0.6096821118481771,
54972.6,57.900000000001455,0.48,0.30,0.59,0.49,-0.01,-0.07,22.010731473533543,3.664718280655006,0.7668451677342459,
54972.7,58.0,0.43,0.30,0.58,0.18,0.30,-0.04,22.207334374030577,3.7559664377448754,0.84558397064028,
54972.8,58.10000000000582,0.38,0.27,0.57,-0.39,1.09,-0.08,21.216505367284217,3.931886193991796,0.846389140746496,
54972.9,58.200000000004366,0.41,0.31,0.65,-0.70,0.55,-0.27,18.276835065185658,4.0559234523294565,0.7075164348843368,
54973.0,58.30000000000291,0.25,0.22,0.67,-1.50,1.74,-0.41,15.292798958987202,4.18863117613019,0.5766330960137884,
54973.1,58.400000000001455,0.14,0.09,0.82,-1.79,0.85,-0.91,13.288269262774593,4.609769692679721,0.2829162070585991,
54973.2,58.5,0.09,-0.18,1.23,-1.95,0.76,-0.31,14.16637215380141,0.9032173032982787,0.24884868508914956,
54973.3,58.60000000000582,0.06,-0.32,1.09,-0.91,0.38,-0.09,18.540725444275367,1.1401945348130205,0.6236939420368108,
54973.4,58.700000000004366,0.07,-0.29,0.98,-0.35,0.00,-0.02,21.020563741251088,1.2163021807029684,0.6750685301431768,
54973.5,58.80000000000291,0.01,-0.30,0.94,-0.18,0.26,-0.00,21.21958764915096,1.2256386769522283,0.732279216178217,
54973.6,58.900000000001455,-0.07,-0.32,0.87,0.03,0.16,-0.00,23.044628441352664,1.1200999633995372,0.8027394894229831,
54973.7,59.0,-0.03,-0.31,0.87,-0.01,0.07,-0.02,23.615075693293893,1.1511454646597927,0.7659472323196334,
54973.8,59.10000000000582,-0.09,-0.33,0.89,0.00,0.15,0.02,23.609923760995077,1.1532571846006536,0.7620465020542492,
54973.9,59.200000000004366,-0.06,-0.32,0.85,0.00,0.05,0.00,24.23257930968142,1.1254345140598276,0.7704046329343558,
54974.0,59.30000000000291,-0.07,-0.31,0.88,-0.02,0.14,-0.02,22.83909805574642,1.0754985973724283,0.7153771510657044,
54974.1,59.400000000001455,-0.10,-0.31,0.86,-0.03,0.06,0.01,24.205441536976764,1.0989856338110595,0.7464082118240035,
54974.2,59.5,-0.08,-0.32,0.89,0.01,0.09,-0.00,23.755776139709685,1.1583858851975093,0.7834836108663762,
54974.3,59.60000000000582,-0.08,-0.30,0.86,0.01,0.04,-0.00,24.41452436563121,1.1191679978771572,0.7768859859693308,
54974.4,59.700000000004366,-0.06,-0.30,0.85,0.03,0.02,0.00,24.559352597330413,1.0667207175083455,0.7481945467947372,
54974.5,59.80000000000291,-0.10,-0.30,0.86,0.01,0.09,-0.01,23.807024173550126,1.09204738473123,0.7706826010646991,
54974.6,59.900000000001455,-0.11,-0.31,0.88,0.04,0.01,0.01,25.40796331861332,1.135959922006336,0.7620890324651599,
54974.7,60.0,-0.09,-0.30,0.86,0.05,0.02,0.02,23.720446876060322,1.015229702575803,0.744789398560224,
54974.8,60.10000000000582,-0.11,-0.29,0.88,0.03,0.02,0.03,24.795150735577312,1.0048744559523715,0.6598668813039803,
54974.9,60.200000000004366,-0.09,-0.29,0.88,0.03,0.03,0.01,23.53296836355329,1.057133902195485,0.7380036912462187,
54975.0,60.30000000000291,-0.11,-0.29,0.88,0.04,0.01,0.02,24.665338027280306,1.028434684429741,0.7480561991047662,
54975.1,60.400000000001455,-0.11,-0.28,0.88,0.02,0.02,0.03,23.90857586724897,1.025026995260936,0.7347577668333982,
54975.2,60.5,-0.09,-0.27,0.89,-0.02,-0.06,0.05,23.598915229306623,0.943488134519134,0.7341402656413265,
54975.3,60.60000000000582,-0.10,-0.29,0.88,0.01,-0.15,0.06,24.275462920405865,1.00676583857494,0.7305837755919308,
54975.4,60.700000000004366,-0.10,-0.28,0.87,0.03,0.03,0.02,22.25730891190577,0.9680129653572029,0.7750699642637068,
54975.5,60.80000000000291,-0.09,-0.27,0.88,0.07,-0.02,-0.02,22.81071677961918,0.9887649898553911,0.657155373180191,
54975.6,60.900000000001455,-0.09,-0.27,0.88,0.06,0.04,-0.04,22.369839069604414,0.9624165786453136,0.8009478304577063,
54975.7,61.0,-0.09,-0.26,0.87,0.06,-0.03,-0.03,23.18086495366383,1.0169852640696648,0.7321829934851438,
54975.8,61.10000000000582,-0.06,-0.23,0.91,0.06,0.14,-0.06,21.517932056775344,0.9704872174463343,0.7778427175091499,
54975.9,61.200000000004366,-0.12,-0.29,0.86,0.06,0.05,0.01,21.745845580248197,1.0407284236384315,0.7044241041001416,
54976.0,61.30000000000291,-0.09,-0.23,0.92,0.06,-0.01,0.00,20.97753798709467,1.1007130113671892,0.7693148631795814,
54976.1,61.400000000001455,-0.13,-0.22,0.87,0.10,-0.07,-0.01,21.76379103005724,0.9377280143267448,0.7696341217157724,
54976.2,61.5,-0.07,-0.23,0.89,0.10,-0.03,-0.06,21.524806619340396,1.0358857528307717,0.727889066133853,
54976.3,61.60000000000582,-0.07,-0.23,0.91,0.05,0.05,-0.04,20.89843295560698,1.0147267679595484,0.7500807796376772,
54976.4,61.700000000004366,-0.07,-0.20,0.91,0.03,0.04,-0.05,21.691129523378905,0.973794884434799,0.7701518640607409,
54976.5,61.80000000000291,-0.10,-0.21,0.91,0.05,0.03,-0.05,19.966594601984585,1.0157067952260141,0.812550967212552,
54976.6,61.900000000001455,-0.12,-0.20,0.90,0.08,0.07,-0.02,19.05039107210138,0.9627253327049093,0.7704884294595746,
54976.7,62.0,-0.10,-0.18,0.92,0.07,0.00,-0.04,19.189439804225657,0.990884515428644,0.7221100307172665,
54976.8,62.10000000000582,-0.11,-0.18,0.91,0.01,-0.00,-0.02,19.677769182506434,0.8834519816408701,0.7565381874037972,
54976.9,62.200000000004366,-0.09,-0.19,0.90,-0.06,-0.05,-0.03,19.018554098563854,0.982793723247329,0.7642138175404581,
54977.0,62.30000000000291,-0.08,-0.20,0.90,-0.09,-0.00,0.01,19.184298267072478,1.1686210393151217,0.6814235198141233,
54977.1,62.400000000001455,-0.07,-0.19,0.90,-0.12,0.11,0.00,19.53926815415562,1.2105944401248876,0.7916285653691623,
54977.2,62.5,-0.11,-0.21,0.91,0.02,0.03,0.00,20.93452889367229,1.0496463897453483,0.7082356431878144,
54977.3,62.60000000000582,-0.09,-0.15,1.02,0.09,0.04,0.06,21.026813833769488,0.9961316549660609,0.7111617716427655,
54977.4,62.700000000004366,-0.06,-0.13,1.14,0.34,0.25,0.02,20.31146474284905,1.0163663266125789,0.7087483428348631,
54977.5,62.80000000000291,-0.03,-0.09,1.11,0.77,-0.23,0.04,19.612682121525346,0.9567556039283078,0.6816433226163139,
54977.6,62.900000000001455,-0.03,-0.07,1.04,1.01,-0.32,-0.16,17.82030302772655,0.6787704704477093,0.5491668906049251,
54977.7,63.0,-0.01,0.03,0.99,1.05,-0.14,-0.28,16.25615883288546,0.46915502774666024,0.35721096205054476,
54977.8,63.10000000000582,-0.08,0.05,0.84,1.14,-0.33,-0.31,16.728197751102776,6.241788851630052,0.30819684992101853,
54977.9,63.200000000004366,-0.15,0.20,0.74,0.94,-0.55,0.04,13.792497960848136,5.5067959090725545,0.17156814152619,
54978.0,63.30000000000291,-0.13,0.32,0.58,0.32,-0.70,0.50,15.190223829818967,4.63706008955635,0.3574653085775654,
54978.1,63.400000000001455,0.16,0.36,0.68,-0.21,-1.10,0.64,16.367128642495604,4.226357051044593,0.37495628501425443,
54978.2,63.5,0.08,0.23,0.65,-0.40,-0.74,0.69,17.23962006541908,3.6335237114337424,0.4661814605969607,
54978.3,63.60000000000582,0.66,0.07,0.75,0.08,-0.58,-0.22,18.877486591175213,3.3333317081124942,0.5401425947540441,
54978.4,63.700000000004366,0.12,0.15,1.02,-0.24,1.40,0.09,19.171460559905185,3.4539390965062915,0.43450750913750846,
54978.5,63.80000000000291,0.21,0.26,0.69,0.61,0.41,-0.35,18.782654232030147,3.83184330097399,0.3731646351711255,
54978.6,63.900000000001455,-0.14,0.28,0.93,-0.72,6.81,-0.24,18.905737224451205,4.470701747622004,0.44309403871520026,
54978.7,64.0,-0.87,0.22,0.47,1.85,0.05,-0.71,35.00142997078834,5.916011473361367,0.6902115278852192,
54978.8,64.10000000000582,-0.25,0.48,0.85,0.04,0.46,0.09,36.744613210646264,5.774843770426944,0.7197857962619472,
54978.9,64.20000000000437,-0.52,0.36,0.66,-0.11,-0.37,0.13,37.570968845639314,5.827018855366008,0.7318709000018055,
54979.0,64.30000000000291,-0.51,0.39,0.69,-0.01,0.05,0.12,37.3952657431392,5.755608881269545,0.7169113631059473,
54979.1,64.40000000000146,-0.48,0.42,0.72,-0.30,-0.39,0.26,37.50905224075916,5.77550384844032,0.7292315127580098,
54979.2,64.5,-0.43,0.39,0.79,-0.58,-0.72,0.40,35.92177194961295,5.776248851076222,0.7307504614223165,
54979.3,64.60000000000582,-0.38,0.37,0.79,-0.67,-0.48,0.40,31.56673248849174,5.779429067798111,0.712378410851961,
54979.4,64.70000000000437,-0.34,0.31,0.89,-0.25,-1.20,0.31,29.49721512278744,5.758766713715722,0.6612470216361656,
54979.5,64.80000000000291,-0.16,0.33,0.90,-0.32,-1.47,0.35,25.194322773196344,5.7116429009174166,0.6210318901902374,
54979.6,64.90000000000146,0.04,0.30,0.87,-0.19,-2.25,0.45,20.250101234314855,5.627275563462199,0.4354931012538117,
54979.7,65.0,0.28,0.15,0.55,-0.53,-0.63,0.54,17.039442479142327,4.102020095073323,0.27265369903684994,
54979.8,65.10000000000582,0.31,0.19,0.77,-0.03,-0.16,-0.05,18.504175204531542,3.7185486363661364,0.31738150056397363,
54979.9,65.20000000000437,0.33,0.21,0.91,0.09,-0.18,-0.18,19.141917354329998,3.417052031834114,0.3346540772429427,
54980.0,65.30000000000291,0.30,0.18,0.93,0.19,0.54,-0.08,18.67753731089835,3.6111573532966266,0.4166064031774458,
54980.1,65.40000000000146,0.35,0.24,0.88,0.72,-0.68,0.02,18.50529924102823,3.7844560073675018,0.34577935998155973,
54980.2,65.5,0.31,0.29,0.72,0.88,-0.76,-0.04,18.26783238372851,3.91055394123793,0.6006872762738276,
54980.3,65.60000000000582,0.35,0.32,0.64,0.54,0.59,-0.19,20.398328362883074,3.9610243633521818,0.7939445302218868,
54980.4,65.70000000000437,0.07,0.34,0.45,-0.36,1.22,0.02,18.984786014069265,4.449918281378734,0.7368438669316385,
54980.5,65.80000000000291,0.28,0.43,0.55,-1.17,-0.18,0.05,16.675428030488455,4.544287708597546,0.6872498778185165,
54980.6,65.90000000000146,0.27,0.22,0.86,-1.71,1.10,-0.33,14.82933579092469,4.482602518513887,0.4934862492962768,
54980.7,66.0,-0.01,0.08,1.11,-1.72,1.22,-0.57,13.24014350375403,6.226953260895439,0.2304907286748407,
54980.8,66.10000000000582,-0.12,-0.17,1.19,-1.07,0.12,-0.20,15.787808587641287,0.6349258068480648,0.5607509595381934,
54980.9,66.20000000000437,0.11,-0.17,1.22,-0.35,0.94,0.14,16.391854684568187,0.826365175605084,0.5922614614624998,
54981.0,66.30000000000291,-0.36,-0.25,0.69,-0.16,0.64,0.03,19.28636305787071,0.7211724465991356,0.7016904377160468,
54981.1,66.40000000000146,-0.18,-0.23,1.01,-0.06,-0.04,0.03,22.017295474240246,0.7321939838539574,0.7846642967960332,
54981.2,66.5,-0.10,-0.18,0.88,-0.00,0.08,0.00,20.68418961429236,0.7138265177676415,0.7015101398082105,
54981.3,66.60000000000582,-0.12,-0.18,0.88,0.01,-0.11,-0.01,20.673676499355405,0.7113853086583695,0.7540148520421399,
54981.4,66.70000000000437,-0.10,-0.19,0.90,0.03,-0.09,-0.02,21.22132418111556,0.7053782120923762,0.6808331207370341,
54981.5,66.80000000000291,-0.08,-0.19,0.91,-0.00,-0.07,-0.02,21.06934740327759,0.7796898704431967,0.7032887259331164,
54981.6,66.90000000000146,-0.10,-0.20,0.90,-0.00,-0.03,0.00,19.753647764400377,0.7126704402552477,0.5903738199814903,
54981.7,67.0,-0.11,-0.19,0.90,0.02,0.08,0.01,19.34062305097744,0.8616468597376367,0.6985962484724573,
54981.8,67.10000000000582,-0.11,-0.19,0.90,0.01,0.03,0.03,19.832796071154466,0.6383627485792702,0.6540357452270591,
54981.9,67.20000000000437,-0.10,-0.19,0.91,0.00,0.03,0.03,20.70301185818141,0.6897260331583326,0.6806217669394177,
54982.0,67.30000000000291,-0.10,-0.19,0.91,0.01,0.01,0.00,18.91914110101196,0.7412920591888364,0.7000129028103484,
54982.1,67.40000000000146,-0.11,-0.18,0.90,-0.00,-0.01,0.02,19.066079827798898,0.7223884396394097,0.7282329313604379,
54982.2,67.5,-0.11,-0.18,0.91,-0.01,0.02,0.01,20.594020976972903,0.7698164046761351,0.6932780388241577,
54982.3,67.60000000000582,-0.10,-0.19,0.90,-0.00,0.01,0.01,19.119947698673236,0.6979440784224192,0.6772629617432069,
54982.4,67.70000000000437,-0.11,-0.19,0.90,0.00,0.02,0.02,20.724442091405017,0.7043793195496634,0.69556375413556,
54982.5,67.80000000000291,-0.10,-0.18,0.90,-0.01,0.01,0.02,19.72122967768491,0.7674944878862789,0.7220380602054589,
54982.6,67.90000000000146,-0.12,-0.18,0.90,0.00,0.01,0.00,19.28636305787071,0.7211724465991356,0.7016904377160468,
54982.7,68.0,-0.11,-0.18,0.90,-0.01,0.02,0.01,19.602923251392887,0.767776337850754,0.6874858630291667,
54982.8,68.10000000000582,-0.11,-0.18,0.90,-0.01,0.00,0.01,20.132136001924884,0.7135910637715319,0.7090426916680993,
54982.9,68.20000000000437,-0.12,-0.19,0.90,-0.01,0.02,0.01,20.186416224778483,0.6576127659483155,0.7022594850819036,
54983.0,68.30000000000291,-0.10,-0.18,0.90,-0.01,0.03,0.01,20.130635856822803,0.7331581549462909,0.7020609058449134,
54983.1,68.40000000000146,-0.11,-0.19,0.90,-0.00,0.02,0.01,19.09120478125988,0.7313813253629282,0.7098426341619822,
54983.2,68.5,-0.12,-0.18,0.89,-0.00,0.02,0.01,19.25653655255794,0.6154556588508524,0.7650994060612737,
54983.3,68.60000000000582,-0.12,-0.19,0.90,0.01,-0.02,-0.00,19.980275273378993,0.6543783433332434,0.7366391931867559,
54983.4,68.70000000000437,-0.11,-0.17,0.90,-0.00,-0.01,0.00,18.69320732244737,0.6711438354360088,0.6483504845962792,
54983.5,68.80000000000291,-0.12,-0.19,0.90,-0.00,0.02,0.01,18.306897607186205,0.665737970038182,0.7252225657453533,
54983.6,68.90000000000146,-0.10,-0.17,0.90,-0.01,-0.00,0.02,19.165630696640275,0.617437702009734,0.7324797417300843,
54983.7,69.0,-0.08,-0.17,0.90,-0.03,0.04,0.04,19.44673237333203,0.7890458804130887,0.772288458157679,
54983.8,69.10000000000582,-0.12,-0.20,0.90,0.01,0.06,0.00,19.769860899864725,0.7064875898574569,0.7301512533450684,
54983.9,69.20000000000437,-0.12,-0.17,0.90,0.00,-0.03,-0.02,19.623009453190406,0.7098450405674848,0.6879293021278122,
54984.0,69.30000000000291,-0.12,-0.18,0.90,-0.01,0.04,0.02,19.766585441092246,0.799334543303605,0.6637411437869656,
54984.1,69.40000000000146,-0.14,-0.19,0.89,0.03,0.12,0.00,20.495523901574217,0.6237161162153705,0.7353062582633003,
54984.2,69.5,-0.10,-0.16,0.90,0.01,-0.02,0.01,21.380339099275297,0.5669863530282532,0.7719581375880012,
54984.3,69.60000000000582,-0.12,-0.19,0.90,-0.01,0.02,0.02,20.10686698618161,0.6840704039228975,0.685089670810298,
54984.4,69.70000000000437,-0.14,-0.18,0.90,0.00,0.02,-0.00,20.011361772753,0.6867609700557076,0.7501532557566467,
54984.5,69.80000000000291,-0.13,-0.17,0.90,-0.00,0.02,0.01,19.592631267902735,0.6840704039228975,0.7067289557068882,
54984.6,69.90000000000146,-0.12,-0.18,0.91,-0.02,-0.04,0.01,20.83291866253982,0.6486599009328005,0.7854727007649079,
54984.7,70.0,-0.12,-0.18,0.90,-0.02,-0.04,-0.00,18.22480452570068,0.6805827555556428,0.720957479073234,
54984.8,70.10000000000582,-0.11,-0.17,0.93,-0.04,0.07,-0.00,19.36940370791006,0.5837395355850002,0.7829299639634512,
54984.9,70.20000000000437,-0.14,-0.14,0.95,0.02,0.19,0.01,18.787022116344037,0.6383627485792702,0.6974436030830846,
54985.0,70.30000000000291,-0.10,-0.11,1.06,0.12,0.08,0.06,19.935317905666817,0.7393294729386001,0.6736857596909575,
54985.1,70.40000000000146,-0.05,-0.11,1.17,0.62,0.21,-0.21,23.53215247273398,0.6001379301349574,0.6832347504876585,
54985.2,70.5,-0.15,-0.03,1.15,1.13,-0.24,-0.18,20.37951913073515,0.4550395002487326,0.6583705847972722,
54985.3,70.60000000000582,-0.15,0.03,1.01,1.33,-0.27,-0.13,18.172803856312324,0.306431418591409,0.5233907127013434,
54985.4,70.70000000000437,-0.25,0.08,0.82,1.16,0.27,0.09,18.223515028665574,6.178308368449352,0.5641152164772786,
54985.5,70.80000000000291,-0.28,0.24,0.71,1.08,-0.41,0.12,17.858768154606857,5.9524394931581535,0.4920636327150626,
54985.6,70.90000000000146,-0.17,0.32,0.64,0.59,-0.86,0.53,17.237578136153584,5.287140210631774,0.4659459826783731,
54985.7,71.0,0.02,0.34,0.56,-0.02,-1.21,0.75,15.66637162842756,4.786812670670273,0.6233452746953304,
54985.8,71.10000000000582,0.23,0.30,0.71,-0.25,-1.10,0.80,16.319981617636707,4.319643575166418,0.5585203160636358,
54985.9,71.20000000000437,0.43,0.27,0.65,-0.41,-0.40,0.41,18.502986245468595,3.7566498581636885,0.6346564772886678,
54986.0,71.30000000000291,0.39,0.21,0.79,0.01,-0.29,-0.47,20.064657983628827,3.7646393350744263,0.5202502060584782,
54986.1,71.40000000000146,0.22,0.23,0.86,-0.05,1.53,-0.12,18.47368669215758,3.808984943474456,0.46526303532622826,
54986.2,71.5,-0.19,0.19,0.17,-0.07,2.65,-0.56,18.10689371482585,4.578688463530439,0.3910489247931111,
54986.3,71.60000000000582,-0.79,0.25,1.97,-0.27,5.63,-0.39,24.855083986983427,5.710100951666322,0.5865998155036125,
54986.4,71.70000000000437,-0.79,0.67,0.88,1.59,1.23,-0.50,42.77418497177942,5.931650522400332,0.7081441299916861,
54986.5,71.80000000000291,-0.71,0.47,0.52,0.35,0.23,0.07,46.7146679320318,5.87090522910947,0.7183868182837665,
54986.6,71.90000000000146,-0.73,0.45,0.52,-0.03,0.10,0.21,46.5563787251543,5.84004320033497,0.7278271594503144,
54986.7,72.0,-0.67,0.45,0.53,-0.11,-0.33,0.05,47.33225221770035,5.833016241629119,0.7382242187085526,
54986.8,72.10000000000582,-0.67,0.45,0.56,-0.54,-0.75,0.25,46.70045610055645,5.836889535678082,0.7238776540395598,
54986.9,72.20000000000437,-0.60,0.41,0.64,-0.94,-1.27,0.36,42.05698277337546,5.832041003528171,0.7367415222352662,
54987.0,72.30000000000291,-0.61,0.35,0.70,-0.92,-2.05,0.61,36.733109043477384,5.805865231651411,0.7194284901360237,
54987.1,72.40000000000146,-0.35,0.27,1.02,-0.32,-2.31,0.42,28.12749011198831,5.77098452017877,0.6635002118059699,
54987.2,72.5,-0.05,0.30,0.88,-0.24,-2.71,0.54,19.775472181467627,5.614671287020144,0.592018742613109,
54987.3,72.60000000000582,0.35,0.26,0.40,-0.47,-2.64,1.01,16.43319506365089,3.986220648199617,0.32555777968665617,
54987.4,72.70000000000437,0.52,0.13,0.73,-0.52,-0.41,0.23,23.642920716358205,3.113071860854526,0.598751238618183,
54987.5,72.80000000000291,0.49,0.07,0.73,0.04,-0.23,-0.19,23.697105308454873,3.141592653589793,0.6102419707880596,
54987.6,72.90000000000146,0.51,0.13,0.76,0.11,0.18,0.11,23.533155334548745,3.0712094479176866,0.6717632940304175,
54987.7,73.0,0.36,0.05,0.81,0.72,0.01,0.34,22.652483307575796,3.0419240010986313,0.6872655886012118,
54987.8,73.10000000000582,0.42,0.22,0.58,1.28,-0.19,-0.11,21.249305871016116,3.3069736460194066,0.7289011861878552,
54987.9,73.20000000000437,0.43,0.27,0.57,0.81,0.54,-0.55,22.328531075733576,3.627726872162568,0.8189580143687866,
54988.0,73.30000000000291,0.22,0.30,0.50,-0.18,0.95,-0.18,20.65663331716957,3.901579986255536,0.8969290054312775,
54988.1,73.40000000000146,0.40,0.32,0.64,-1.35,0.26,0.03,19.07457207907952,3.983234375766556,0.8408141205403818,
54988.2,73.5,0.39,0.15,0.99,-1.76,1.21,-0.11,15.33754217598113,3.8732220954492624,0.7682174465084265,
54988.3,73.60000000000582,0.29,0.15,1.09,-1.58,0.61,-0.16,12.265247653431219,3.0258334358689827,0.32325173233676907,
54988.4,73.70000000000437,0.13,-0.05,1.18,-0.96,0.84,-0.03,12.094010914498135,1.9906472589518398,0.4830932353947048,
54988.5,73.80000000000291,0.02,-0.21,1.01,-0.30,0.30,0.16,15.064398428082018,1.331673703809418,0.6154831361396914,
54988.6,73.90000000000146,0.04,-0.20,0.94,0.01,0.05,0.05,16.214521269528742,1.1491582376692338,0.5609091380087943,
54988.7,74.0,0.07,-0.18,0.91,0.04,-0.06,-0.06,16.493956468961596,1.1676667726560779,0.6276881414254719,
54988.8,74.10000000000582,0.07,-0.19,0.95,0.01,0.15,-0.04,14.431372076140232,1.3350600957775365,0.59886085675142,
54988.9,74.20000000000437,0.02,-0.18,0.88,0.14,0.12,-0.08,14.68833891221196,1.2370168609481573,0.5881789157099446,
54989.0,74.30000000000291,0.06,-0.11,0.89,0.11,0.04,-0.08,14.48950999861624,1.1626161603864456,0.5837589577932385,
54989.1,74.40000000000146,0.00,-0.16,0.93,0.06,0.31,0.03,15.131268948769632,1.2370507097708403,0.6125695820748027,
54989.2,74.5,-0.04,-0.12,0.88,0.08,0.20,0.05,16.06274571796491,0.8912037712102019,0.5480775251041287,
54989.3,74.60000000000582,-0.02,-0.12,0.91,0.06,0.07,0.04,15.192698904407997,0.7229287793864629,0.6114537289769412,
54989.4,74.70000000000437,-0.03,-0.12,0.91,0.03,0.08,0.02,14.381644551302191,0.8923142871724449,0.6193906947775973,
54989.5,74.80000000000291,-0.02,-0.14,0.91,0.01,0.07,0.02,15.290827315747176,0.7462332476125222,0.6317085033544104,
54989.6,74.90000000000146,-0.04,-0.10,0.90,-0.00,-0.01,0.01,15.270301241298418,0.5825744300827757,0.6463597202953792,
54989.7,75.0,-0.03,-0.12,0.93,-0.01,0.08,-0.03,14.780422862692394,0.7471189987711121,0.5974561490481545,
54989.8,75.10000000000582,-0.05,-0.12,0.91,0.00,0.04,0.01,15.24735058952866,0.5912780585878411,0.5887780774313841,
54989.9,75.20000000000437,-0.06,-0.11,0.91,-0.00,0.02,0.03,16.16994124912023,0.6971394015257105,0.595122743307507,
54990.0,75.30000000000291,-0.06,-0.12,0.91,-0.00,0.02,0.02,15.363170245753317,0.7456361296975035,0.5345470382498214,
54990.1,75.40000000000146,-0.05,-0.12,0.90,-0.02,0.00,0.01,14.862011976848896,0.6492900664242989,0.6785321342188066,
54990.2,75.5,-0.05,-0.12,0.92,-0.02,0.00,-0.00,17.82297954888576,0.7557430494621762,0.6461506494062479,
54990.3,75.60000000000582,-0.06,-0.11,0.91,-0.02,0.01,0.02,16.5119199368214,0.6603632437472358,0.6750940676729299,
54990.4,75.70000000000437,-0.05,-0.12,0.91,-0.02,0.01,0.01,15.12140535796855,0.6085081057037575,0.6881615088868542,
54990.5,75.80000000000291,-0.04,-0.12,0.91,-0.03,-0.03,0.00,14.988131971663448,0.7093637351208237,0.5128369046918312,
54990.6,75.90000000000146,-0.05,-0.13,0.92,-0.00,-0.01,-0.01,15.65383659043367,0.6407990212465883,0.6033484640508844,
54990.7,76.0,-0.04,-0.12,0.92,-0.01,0.02,0.01,16.08952764999644,0.7170792628174986,0.5637254873918629,
54990.8,76.10000000000582,-0.06,-0.12,0.93,-0.01,0.17,-0.01,15.031437057048139,0.5865678843024311,0.5403355671989047,
54990.9,76.20000000000437,-0.06,-0.12,0.91,-0.00,0.14,0.05,16.264150761721314,0.6095957477072963,0.6737726564800485,
54991.0,76.30000000000291,-0.07,-0.11,0.91,0.01,0.00,0.01,14.82585916566052,0.537745159804103,0.5971641662725475,
54991.1,76.40000000000146,-0.07,-0.13,0.92,-0.02,0.02,0.03,14.354194508923168,0.7768804818280282,0.6167034902084887,
54991.2,76.5,-0.05,-0.12,0.91,-0.00,-0.01,0.02,16.32790862296822,0.6270137571090821,0.6835120786079141,
54991.3,76.60000000000582,-0.09,-0.12,0.91,0.01,0.03,-0.02,15.204502622578616,0.7236131595669268,0.6372932279793675,
54991.4,76.70000000000437,-0.04,-0.12,0.91,0.01,-0.00,-0.01,17.220270032725967,0.6438705214103924,0.6800011255060501,
54991.5,76.80000000000291,-0.04,-0.11,0.90,0.05,0.04,0.04,16.373701475231556,0.5659473568540527,0.6423766324870241,
54991.6,76.90000000000146,-0.09,-0.11,0.89,0.02,0.03,-0.00,15.60243891191374,0.7501738977537458,0.6176232055149078,
54991.7,77.0,-0.06,-0.10,0.91,-0.01,0.02,-0.00,15.361552655900379,0.583481838685215,0.6423330127044028,
54991.8,77.10000000000582,-0.07,-0.11,0.92,-0.03,0.03,0.00,15.33622508963663,0.5713374798336268,0.6669348697594095,
54991.9,77.20000000000437,-0.08,-0.12,0.90,-0.03,-0.04,0.01,16.178686596878006,0.586599292652854,0.6570746286613859,
54992.0,77.30000000000291,-0.06,-0.11,0.90,-0.03,0.01,0.01,15.149207900085075,0.5806965073724637,0.6142525909582248,
54992.1,77.40000000000146,-0.07,-0.13,0.90,-0.01,0.03,0.02,16.092346006720092,0.6222277227692232,0.6239689628863601,
54992.2,77.5,-0.06,-0.11,0.91,-0.01,-0.01,-0.00,16.137998636757906,0.614319764211954,0.6527798759295789,
54992.3,77.60000000000582,-0.06,-0.11,0.91,-0.02,0.02,0.00,15.897751413328868,0.6971394015257105,0.6067599618597092,
54992.4,77.70000000000437,-0.07,-0.12,0.91,-0.01,-0.01,0.00,16.21688934413749,0.7068309419201366,0.6858443982886818,
54992.5,77.80000000000291,-0.01,-0.11,0.93,-0.02,0.14,-0.02,15.895260299850394,0.6947382761967033,0.588643776986594,
54992.6,77.90000000000146,-0.01,-0.09,0.95,-0.05,0.35,-0.14,17.32248538749564,0.5517157580237925,0.6716473834192263,
54992.7,78.0,-0.09,-0.12,1.04,-0.04,0.24,-0.06,18.84435459229103,0.5459196677885249,0.6588648003830593,
54992.8,78.10000000000582,-0.01,-0.08,1.25,0.63,-0.63,-0.24,19.557264634912524,0.6577999369788602,0.6715964232213596,
54992.9,78.20000000000437,-0.05,-0.01,1.22,1.18,-0.06,-0.32,17.574430289485914,0.4431185288979499,0.5769146670568891,
54993.0,78.30000000000291,-0.16,0.04,0.96,1.53,-0.44,-0.32,16.248252213699786,6.258190513560666,0.48690041147390045,
54993.1,78.40000000000146,-0.16,0.12,0.81,1.35,-0.61,-0.18,14.865227882545225,5.7887397789883765,0.3698620260557352,
54993.2,78.5,-0.12,0.34,0.63,0.78,-0.86,0.09,14.460345777331883,5.06776599852504,0.44372307332796557,
54993.3,78.60000000000582,0.04,0.36,0.56,0.13,-0.68,0.53,15.463411654612315,4.483652832887598,0.5828925287667114,
54993.4,78.70000000000437,0.01,0.30,0.57,-0.59,-0.13,0.75,16.530438590672663,4.20811333370251,0.5230879467097495,
54993.5,78.80000000000291,0.34,0.24,0.65,-0.31,-1.45,0.39,16.495690346269235,3.8668732719143826,0.41881388121934143,
54993.6,78.90000000000146,0.60,0.20,0.95,-0.08,-0.57,0.09,20.190465571650396,3.5080894394410507,0.6159467518614945,
54993.7,79.0,0.40,0.27,0.77,0.07,0.07,-0.23,19.79497663550023,3.623420077663577,0.5934823516034398,
54993.8,79.10000000000582,0.28,0.27,0.88,0.09,0.50,-0.08,19.946804255318696,3.5692576701209733,0.5005192112105035,
54993.9,79.20000000000437,0.22,0.23,0.75,0.30,1.04,-0.20,18.64882033802675,3.9127569029044262,0.4403210703857441,
54994.0,79.30000000000291,0.09,0.36,0.79,0.44,2.28,-0.69,19.34743910702396,4.503019470531574,0.40921341262525973,
54994.1,79.40000000000146,-0.61,0.46,0.51,-0.12,4.55,-0.87,23.53237344595738,5.598373414286548,0.6267327919850822,
54994.2,79.5,-0.89,0.33,0.42,1.66,2.49,-0.80,41.165381086539206,5.917430454016806,0.6933757352844699,
54994.3,79.60000000000582,-0.63,0.42,0.54,0.48,0.04,-0.17,47.32825160514595,5.856345826139197,0.7206934915051777,
54994.4,79.70000000000437,-0.75,0.40,0.50,-0.19,-0.14,0.17,46.13312259104081,5.877194861701304,0.70451548281531,
54994.5,79.80000000000291,-0.70,0.42,0.53,-0.05,-0.02,0.05,46.46892079659264,5.843995385187374,0.7067007597810134,
54994.6,79.90000000000146,-0.68,0.43,0.56,-0.28,-0.50,0.14,46.46249024751041,5.8913595824120435,0.7118266803287302,
54994.7,80.0,-0.63,0.43,0.64,-0.74,-1.27,0.46,44.51664969424361,5.835142117539745,0.7079204563530741,
54994.8,80.10000000000582,-0.47,0.36,0.74,-0.86,-1.72,0.52,39.1740628477568,5.8096471612162315,0.7334960452671104,
54994.9,80.20000000000437,-0.23,0.33,0.93,-0.03,-2.83,0.35,30.902831585471258,5.85440727973357,0.6881518285684626,
54995.0,80.30000000000291,-0.14,0.33,0.90,-0.41,-2.63,0.75,22.902379789008826,5.467135101030671,0.6116664706782502,
54995.1,80.40000000000146,0.22,0.20,0.64,-0.47,-2.18,0.86,18.234086212366112,4.501193261578191,0.38343777186775785,
54995.2,80.5,0.38,0.17,0.79,-0.46,-0.04,0.19,18.184479646115808,3.557048057668955,0.41512465897610484,
54995.3,80.60000000000582,0.33,0.21,0.81,0.04,0.00,-0.17,19.670470253656877,3.2218929840300574,0.4455637473804159,
54995.4,80.70000000000437,0.36,0.19,0.77,-0.11,-0.12,-0.16,19.537676422747918,3.3308427299604064,0.43233652168997033,
54995.5,80.80000000000291,0.26,0.11,0.90,0.25,0.59,0.06,20.150875911483354,3.273632415204432,0.46514245869859056,
54995.6,80.90000000000146,0.16,0.21,0.92,0.79,0.30,0.28,17.95037882608609,3.681339357370728,0.4400830579413986,
54995.7,81.0,0.37,0.15,0.64,0.96,0.16,-0.14,18.740336176280298,3.9352925130619036,0.5235568542434087,
54995.8,81.10000000000582,0.08,0.42,0.45,-0.09,1.67,-0.31,19.374890967435146,4.2673727556291485,0.7329110019997365,
54995.9,81.20000000000437,0.08,0.43,0.65,-1.46,-0.15,-0.37,18.6719709725567,4.681222146759625,0.7579857365384749,
54996.0,81.30000000000291,0.23,0.33,1.04,-2.19,0.78,-0.17,14.360118383913134,4.410917832481616,0.5230730979475997,
54996.1,81.40000000000146,0.04,-0.06,1.29,-1.84,0.21,-0.36,12.25143665045043,0.6789141052695481,0.24686939556798118,
54996.2,81.5,0.11,-0.19,1.19,-1.06,0.55,0.03,14.029041307231227,1.3971774981835707,0.4897400505469559,
54996.3,81.60000000000582,0.01,-0.12,1.20,-0.00,0.22,-0.22,18.34732950595263,1.1033392124129417,0.694296204748917,
54996.4,81.70000000000437,-0.05,-0.27,0.88,-0.09,-0.13,0.10,18.18818022782928,0.9834912353406741,0.7153162629101404,
54996.5,81.80000000000291,-0.04,-0.23,0.94,0.04,-0.09,-0.04,18.47751606683106,1.0108237632071755,0.6772075946563428,
54996.6,81.90000000000146,-0.01,-0.20,0.93,-0.10,-0.07,0.11,17.976273251149696,1.0980051654680074,0.6417391815787543,
54996.7,82.0,-0.07,-0.23,0.89,-0.05,0.12,0.10,18.319426846929463,1.0075937404189559,0.6958778237894953,
54996.8,82.10000000000582,-0.05,-0.21,0.90,-0.04,-0.08,-0.05,18.549916441860322,1.1223704489048265,0.7278084482951257,
54996.9,82.20000000000437,-0.01,-0.23,0.91,0.00,-0.08,-0.05,18.232536850367257,1.150032857518023,0.7181119362541349,
54997.0,82.30000000000291,-0.01,-0.20,0.90,0.00,-0.02,-0.03,17.653767303326504,1.2589409964243203,0.7098213204318261,
54997.1,82.40000000000146,-0.01,-0.24,0.90,0.02,0.02,0.02,17.14254940199969,1.1055658144861276,0.7198112646019508,
54997.2,82.5,-0.02,-0.20,0.90,0.03,0.07,0.00,18.44611883296863,1.1727450135246613,0.6610859765408167,
54997.3,82.60000000000582,-0.05,-0.21,0.90,0.03,0.10,0.04,18.730429786846855,1.1777944568951302,0.6979939496643732,
54997.4,82.70000000000437,-0.02,-0.19,0.90,0.04,0.03,0.02,18.448807549540973,1.171649661484209,0.6838947311852593,
54997.5,82.80000000000291,-0.03,-0.21,0.91,-0.01,0.08,0.05,18.532722411993333,1.0751682518193877,0.7364587296586855,
54997.6,82.90000000000146,-0.05,-0.20,0.90,-0.03,0.04,0.04,18.065450451068195,1.083201200871883,0.6174308382626703,
54997.7,83.0,-0.05,-0.21,0.90,0.00,0.01,0.01,19.506842389274592,1.0886261919523672,0.765879881444926,
54997.8,83.10000000000582,-0.05,-0.21,0.90,0.02,0.13,-0.03,18.11089727208456,1.0532510649695428,0.6967348549831893,
54997.9,83.20000000000437,-0.05,-0.19,0.90,0.01,-0.00,0.00,17.96381362628771,1.0216434241158858,0.7153696344763335,
54998.0,83.30000000000291,-0.06,-0.20,0.90,-0.00,0.04,0.01,17.83557119915143,1.0009919162814542,0.6627351835990708,
54998.1,83.40000000000146,-0.05,-0.20,0.90,0.02,0.02,0.01,18.424695384184783,0.949912265609428,0.769788330046203,
54998.2,83.5,-0.05,-0.19,0.91,0.00,0.08,0.01,17.520002853881046,0.9579086710041252,0.7061826456724593,
54998.3,83.60000000000582,-0.06,-0.19,0.90,0.01,0.04,0.02,19.140506785349235,0.8998250274459744,0.6785975773026651,
54998.4,83.70000000000437,-0.06,-0.19,0.89,-0.01,-0.02,0.00,18.9672797206136,1.0250189989632221,0.7183761347672255,
54998.5,83.80000000000291,-0.08,-0.20,0.90,-0.01,0.06,0.02,19.260181722922553,1.027695148855052,0.7262702100293843,
54998.6,83.90000000000146,-0.09,-0.19,0.91,0.01,-0.01,-0.00,20.23184865502903,0.9870873851400511,0.6926151951858728,
54998.7,84.0,-0.06,-0.19,0.90,-0.01,0.01,0.02,16.565886634889182,0.9980745565424513,0.6467847562604799,
54998.8,84.10000000000582,-0.07,-0.20,0.90,-0.01,-0.01,0.01,18.299521851676893,0.9078114128117665,0.6650177917675204,
54998.9,84.20000000000437,-0.06,-0.19,0.90,-0.02,0.02,0.01,20.007683524086442,0.92461552706386,0.6869198965927285,
54999.0,84.30000000000291,-0.06,-0.19,0.91,-0.01,-0.02,0.00,18.428377573731225,1.0408758732005068,0.7154256006519614,
54999.1,84.40000000000146,-0.07,-0.20,0.90,-0.01,0.05,0.03,19.019955310147285,1.0226802852280859,0.6849514393480394,
54999.2,84.5,-0.06,-0.19,0.90,-0.00,-0.03,0.00,18.329784505007144,0.9544993893988254,0.6356242938532609,
54999.3,84.60000000000582,-0.07,-0.20,0.89,-0.03,0.04,0.02,17.70527040177585,1.0565789787705382,0.6939938072152385,
54999.4,84.70000000000437,-0.07,-0.20,0.91,-0.00,0.01,0.00,18.222252879378004,0.9745971854974165,0.659591583028678,
54999.5,84.80000000000291,-0.07,-0.20,0.90,-0.02,0.05,0.01,18.74235844284278,0.9355673805688379,0.7352909916934471,
54999.6,84.90000000000146,-0.07,-0.20,0.91,-0.01,0.00,0.01,18.552393376596996,0.9104672735095607,0.6382646730739834,
54999.7,85.0,-0.07,-0.21,0.89,-0.01,0.04,0.01,19.125987556202162,0.9841098005747869,0.7222986422716101,
54999.8,85.10000000000582,-0.08,-0.20,0.90,-0.02,0.01,0.01,18.70558472756198,1.0659749543357648,0.6632426487690172,
54999.9,85.20000000000437,-0.07,-0.20,0.90,-0.01,-0.01,0.01,19.32559442811527,0.8745467167362944,0.7175711941643568,
55000.0,85.30000000000291,-0.07,-0.20,0.90,-0.01,-0.02,0.01,19.002933983993103,1.0317459384837557,0.7197218000370961,
55000.1,85.40000000000146,-0.07,-0.19,0.90,-0.00,-0.01,0.00,19.723237563848386,0.8821290162439628,0.7986783083023907,
55000.2,85.5,-0.07,-0.20,0.89,0.00,0.01,0.00,18.65153076827744,0.9100497178406166,0.6870398303187228,
55000.3,85.60000000000582,-0.07,-0.20,0.90,0.00,0.03,0.01,19.015009860633782,0.9764883420753145,0.6745917616449679,
55000.4,85.70000000000437,-0.07,-0.19,0.90,-0.00,-0.01,0.01,19.990812889925213,1.037056382067658,0.6642786776405375,
55000.5,85.80000000000291,-0.08,-0.21,0.90,-0.00,0.02,0.01,18.94464040302692,0.9897681171364178,0.6544805849730777,
55000.6,85.90000000000146,-0.08,-0.20,0.90,-0.01,0.02,0.01,18.46363452844537,0.9299561131019028,0.7093447159368509,
55000.7,86.0,-0.08,-0.20,0.90,-0.01,0.01,0.01,19.74889870347205,0.8409636389082673,0.6349384829840417,
55000.8,86.10000000000582,-0.08,-0.20,0.91,-0.01,0.02,0.01,19.218441664193275,0.9706362675439272,0.6652794302176805,
55000.9,86.20000000000437,-0.06,-0.20,0.91,-0.02,0.01,0.01,19.84991939530234,0.9648176563695131,0.7217770683912766,
55001.0,86.30000000000291,-0.02,-0.19,1.00,-0.08,0.49,0.09,21.255846254618987,0.9511169197469794,0.7362787768114774,
55001.1,86.40000000000146,-0.14,-0.17,1.01,0.05,0.35,-0.01,21.469676290060825,0.7868811084300107,0.7292071345180874,
55001.2,86.5,0.04,-0.14,1.23,0.71,-0.40,-0.12,20.635924985325953,0.8348733636238705,0.6911696538502019,
55001.3,86.60000000000582,-0.10,-0.12,1.14,1.20,-0.06,-0.18,19.356768841932272,0.7051387679115185,0.6567658278593459,
55001.4,86.70000000000437,-0.12,0.00,1.01,1.53,-0.14,-0.19,18.643081826779603,0.6455064536987596,0.5023270644306869,
55001.5,86.80000000000291,-0.23,0.15,0.83,1.41,-0.29,0.00,15.858281748033107,6.1675306263599206,0.2824285047759598,
55001.6,86.90000000000146,-0.18,0.24,0.60,1.15,-0.84,0.15,13.518017606143292,5.379968003881308,0.2610558922052544,
55001.7,87.0,-0.02,0.31,0.59,0.26,-0.67,0.57,15.628349241042702,4.651673423851408,0.4354373526035468,
55001.8,87.10000000000582,0.14,0.31,0.50,-0.41,-0.21,0.51,15.998853083893232,4.054763141247058,0.5390698833222621,
55001.9,87.20000000000437,0.19,0.20,0.71,-0.59,-0.38,0.32,16.23867297533884,3.939038426841427,0.4088901314105171,
55002.0,87.30000000000291,0.34,0.23,0.82,-0.21,-0.16,-0.02,17.099628650938595,3.7815020388278415,0.40146930450610013,
55002.1,87.40000000000146,0.15,0.45,1.10,-0.14,0.83,0.01,18.697403563061904,3.6864565690413365,0.40293566883520326,
55002.2,87.5,0.21,0.29,0.76,0.36,-0.23,0.03,17.0170297055626,4.10575168640234,0.3111323526402503,
55002.3,87.60000000000582,0.21,0.31,0.81,-0.09,2.21,-0.29,16.727608914605817,4.071642685559262,0.44894427029659606,
55002.4,87.70000000000437,-0.11,0.50,0.94,-0.01,3.16,-0.48,20.099467654642,5.168624742407551,0.3685227415449254,
55002.5,87.80000000000291,-0.46,0.64,0.66,1.47,4.53,-0.69,27.876651520582598,5.808875924855018,0.6086864090905298,
55002.6,87.90000000000146,-0.69,0.36,0.67,1.03,0.70,-0.60,44.45475227689386,5.942448997867147,0.7052517268126031,
55002.7,88.0,-0.70,0.40,0.53,-0.09,-0.05,0.33,44.09661778413397,5.937221858717064,0.7058567011069227,
55002.8,88.10000000000582,-0.68,0.41,0.55,-0.04,-0.21,0.11,44.81235878638838,5.891561850641132,0.7008441710675621,
55002.9,88.20000000000437,-0.70,0.40,0.59,-0.06,-0.12,0.02,45.159997785650965,5.878337991032776,0.7126328269690541,
55003.0,88.30000000000291,-0.63,0.39,0.62,-0.45,-0.67,0.27,43.069657532885024,5.838982370273431,0.7025726783086542,
55003.1,88.40000000000146,-0.59,0.41,0.67,-0.71,-1.16,0.39,39.684296642374804,5.8761003233343585,0.7258991122386168,
55003.2,88.5,-0.49,0.32,0.74,-0.75,-1.14,0.32,35.93053575999111,5.880132881174547,0.7150384046172146,
55003.3,88.60000000000582,-0.39,0.27,0.93,-0.18,-1.86,0.25,31.085273040460816,5.868410520782472,0.6629914846208409,
55003.4,88.70000000000437,-0.17,0.33,0.87,-0.18,-2.63,0.50,22.86085956389217,5.747173570202026,0.5557843547331314,
55003.5,88.80000000000291,0.11,0.16,0.67,-0.57,-1.86,0.63,17.400879288127943,5.309351917600091,0.27009931274854915,
55003.6,88.90000000000146,0.24,0.21,0.68,-0.03,-0.53,0.12,17.970712284158356,3.516273853872569,0.3249927764587615,
55003.7,89.0,0.26,0.18,0.80,0.01,0.16,0.05,17.4917237572516,3.4351131243833706,0.38060762128380043,
55003.8,89.10000000000582,0.37,0.24,1.03,0.27,-0.13,-0.23,20.352410176684234,3.369281973358449,0.381396869532151,
55003.9,89.20000000000437,0.07,0.14,0.77,0.44,0.51,0.06,18.320581322654586,3.3426435496397673,0.4224456728524762,
55004.0,89.30000000000291,0.14,0.12,0.66,0.95,-0.03,0.12,18.380924895118852,3.905467722295156,0.4041641244843963,
55004.1,89.40000000000146,0.31,0.24,0.76,0.26,0.92,-0.40,18.6832786201994,4.064721229037142,0.6974837707193567,
55004.2,89.5,-0.04,0.38,0.48,-0.94,0.95,-0.26,18.90919881962216,4.496109621961746,0.7051194856066773,
55004.3,89.60000000000582,0.13,0.32,0.77,-1.76,0.01,-0.23,15.732526815486443,4.649700664937772,0.6291703362608874,
55004.4,89.70000000000437,0.02,0.15,1.12,-1.96,-0.03,-0.16,13.435583351682205,4.49568167105302,0.37942793098210886,
55004.5,89.80000000000291,0.06,-0.06,1.22,-1.34,0.77,0.32,13.917981175443513,1.4771255341273917,0.3529575144174906,
55004.6,89.90000000000146,0.07,-0.12,1.12,-0.60,0.61,0.03,16.719659087433573,1.207105181473161,0.588174804335577,
55004.7,90.0,0.10,-0.21,1.09,-0.05,0.19,-0.14,17.22292077436345,1.1247626272550193,0.6866280698071324,
55004.8,90.10000000000582,-0.07,-0.19,0.80,-0.06,0.17,0.01,16.44892701667802,1.0973100370555386,0.6534802839042293,
55004.9,90.20000000000437,-0.11,-0.20,0.91,0.07,0.23,-0.04,18.076363019147408,1.0073286763100648,0.7081669465577196,
55005.0,90.30000000000291,-0.08,-0.19,0.92,0.02,0.06,0.06,18.475965468683903,0.9838316055939128,0.6169371444270848,
55005.1,90.40000000000146,-0.05,-0.19,0.91,-0.02,0.06,0.07,18.415637376968522,1.042007507731634,0.7162847723563018,
55005.2,90.5,-0.07,-0.18,0.90,0.02,-0.04,0.01,19.277865545749613,0.9941568705116198,0.7186781366678207,
55005.3,90.60000000000582,-0.10,-0.20,0.88,0.02,0.16,-0.01,18.466491274738686,1.033195391972466,0.6764647433690534,
55005.4,90.70000000000437,-0.09,-0.23,0.91,0.01,0.01,0.03,17.83961883000867,1.0031707079235757,0.7361676699674214,
55005.5,90.80000000000291,-0.12,-0.19,0.89,0.00,0.09,0.03,18.679130065396514,0.9856755596498404,0.7339418292169406,
55005.6,90.90000000000146,-0.07,-0.16,0.91,0.04,-0.01,0.02,16.99678499010916,0.821185346885475,0.7401388388155452,
55005.7,91.0,-0.10,-0.16,0.92,-0.04,0.07,0.02,18.468272794173256,0.9200859178985533,0.663506288118463,
55005.8,91.10000000000582,-0.09,-0.16,0.89,-0.07,-0.06,0.04,18.074849930220722,0.8062144980064814,0.6219712582366699,
55005.9,91.20000000000437,-0.09,-0.19,0.90,-0.04,0.06,0.02,18.149385664534215,0.8866282411389335,0.6696345114428642,
55006.0,91.30000000000291,-0.09,-0.20,0.92,-0.08,0.04,0.05,19.07271087181893,0.9360987192039987,0.6528947299328276,
55006.1,91.40000000000146,-0.09,-0.22,0.89,-0.07,0.02,-0.00,20.320595463716117,1.0189931009507385,0.7107821574685216,
55006.2,91.5,-0.08,-0.20,0.90,-0.00,-0.04,-0.01,19.389577096986926,0.9616042917462311,0.7595704724806875,
55006.3,91.60000000000582,-0.14,-0.21,0.90,0.02,0.13,0.02,19.370438817951438,0.8599045397393904,0.6660804704851871,
55006.4,91.70000000000437,-0.10,-0.20,0.91,0.07,0.04,0.02,19.23030160969921,0.933981951646643,0.7118749150820047,
55006.5,91.80000000000291,-0.11,-0.18,0.90,0.09,0.02,-0.01,20.076319383791443,0.7531512809621944,0.7004031989822764,
55006.6,91.90000000000146,-0.11,-0.19,0.91,-0.01,-0.02,-0.00,19.24325855981777,0.799334543303605,0.6851926685763409,
55006.7,92.0,-0.11,-0.18,0.91,-0.04,0.06,-0.00,19.79060888401365,0.8899110686526817,0.7313216089750054,
55006.8,92.10000000000582,-0.12,-0.22,0.90,-0.05,-0.09,-0.02,19.471420081750587,0.8543675449987583,0.7261103999677887,
55006.9,92.20000000000437,-0.10,-0.16,0.90,-0.03,-0.03,-0.02,19.295206658649708,1.0325273608434529,0.7790580302924976,
55007.0,92.30000000000291,-0.09,-0.20,0.90,0.06,-0.02,-0.01,18.880585266352313,0.9349261249566839,0.6926231962960192,
55007.1,92.40000000000146,-0.12,-0.22,0.90,0.09,0.06,0.07,18.643671848646125,0.9300567444450524,0.7213346100181823,
55007.2,92.5,-0.11,-0.18,0.92,0.01,-0.04,0.08,18.120433217779315,0.8584387287005677,0.7392934306611858,
55007.3,92.60000000000582,-0.13,-0.17,0.90,0.05,0.02,0.01,19.455022487779342,0.7803881852744069,0.8117165373520869,
55007.4,92.70000000000437,-0.12,-0.15,0.90,0.03,0.05,0.01,20.251333289440478,0.8160502061489159,0.706800152833335,
55007.5,92.80000000000291,-0.11,-0.17,0.90,-0.00,0.02,0.02,18.792708692469006,0.7988051812732816,0.7390386518338085,
55007.6,92.90000000000146,-0.14,-0.16,0.90,-0.02,-0.00,0.05,18.553622287844497,0.7075160866276284,0.684000825848015,
55007.7,93.0,-0.11,-0.17,0.91,-0.01,-0.06,0.03,19.60629235730203,0.6439795013576507,0.6940983534450164,
55007.8,93.10000000000582,-0.11,-0.16,0.91,-0.01,-0.01,0.02,18.306422370304908,0.6821222669424736,0.7503690038457981,
55007.9,93.20000000000437,-0.11,-0.17,0.90,-0.01,0.05,-0.01,18.14604640135145,0.765671992460594,0.6843590073657074,
55008.0,93.30000000000291,-0.14,-0.17,0.90,0.00,0.07,0.03,19.26588954603446,0.667526060200232,0.7397885702553642,
55008.1,93.40000000000146,-0.13,-0.15,0.91,-0.06,-0.03,0.03,18.84908751107066,0.8048726070583497,0.7399573928211234,
55008.2,93.5,-0.12,-0.17,0.90,-0.06,0.03,0.03,20.09603194663066,0.681126551469793,0.8186338088181496,
55008.3,93.60000000000582,-0.13,-0.18,0.91,-0.02,-0.07,-0.02,19.946330489591315,0.7413173010413759,0.6887016136438053,
55008.4,93.70000000000437,-0.12,-0.19,0.90,-0.00,0.02,0.00,19.112603171729383,0.7734810677685718,0.7518770784515743,
55008.5,93.80000000000291,-0.12,-0.16,0.91,0.01,-0.03,-0.02,19.453732289717568,0.7999081860041025,0.6140453253509495,
55008.6,93.90000000000146,-0.12,-0.18,0.91,-0.03,0.02,0.02,19.350067183345903,0.7794740620843726,0.6647397135186777,
55008.7,94.0,-0.13,-0.17,0.90,0.00,0.02,0.01,19.341470988526183,0.7376426066846027,0.649780552427417,
55008.8,94.10000000000582,-0.12,-0.16,0.91,0.03,-0.07,-0.02,19.091416919652666,0.7794740620843726,0.67540239891352,
55008.9,94.20000000000437,-0.12,-0.18,0.88,-0.01,0.04,0.04,18.340528890956225,0.7872086623244808,0.6929976899963091,
55009.0,94.30000000000291,-0.13,-0.18,0.90,-0.01,0.05,-0.01,18.16270904903781,0.8348150755070701,0.70269689269256,
55009.1,94.40000000000146,-0.09,-0.16,0.91,0.00,-0.07,-0.03,19.505540238609132,0.7429277513970169,0.7403214211347234,
55009.2,94.5,-0.11,-0.17,0.91,-0.01,0.02,0.00,19.119947698673236,0.6979440784224192,0.6772629617432069,
55009.3,94.60000000000582,-0.12,-0.16,0.91,-0.01,0.00,-0.00,18.898608414378028,0.7404654217208441,0.7182393743132203,
55009.4,94.70000000000437,-0.08,-0.14,0.94,-0.06,-0.01,0.08,18.158716915024588,0.8570293837359756,0.7553596872301211,
55009.5,94.80000000000291,-0.12,-0.12,0.90,0.00,-0.12,-0.17,19.704113783674718,0.7477219872600915,0.7047556747118248,
55009.6,94.90000000000146,-0.08,-0.17,0.92,-0.00,-0.17,0.00,19.1563096654862,0.8570293837359756,0.7073864479206379,
55009.7,95.0,-0.10,-0.12,0.97,0.02,0.32,-0.01,20.002344862540493,0.8466267420654472,0.5672140069977337,
55009.8,95.10000000000582,-0.13,-0.14,0.98,0.25,0.06,0.07,17.46534282514947,0.7672638163036143,0.7042757959452535,
55009.9,95.20000000000437,-0.01,-0.08,1.13,0.66,-0.11,0.04,19.513085353167497,0.6632029927060933,0.571715254013708,
55010.0,95.30000000000291,-0.04,0.01,1.20,1.20,-0.18,-0.02,17.96053729708552,0.571735342720443,0.6293010966960586,
55010.1,95.40000000000146,-0.14,0.08,0.92,1.49,0.09,-0.15,15.929143103130187,0.08057054346379847,0.4176419696556596,
55010.2,95.5,-0.12,0.16,0.86,1.42,-0.44,-0.17,16.589635318475207,5.899973796900178,0.5196121137319696,
55010.3,95.60000000000582,-0.14,0.31,0.77,1.18,-0.37,0.17,16.617535918420636,5.141167007830706,0.5078835490559785,
55010.4,95.70000000000437,-0.07,0.44,0.58,0.81,-0.51,0.33,16.23698247828087,4.830829927142729,0.6362381374391143,
55010.5,95.80000000000291,0.06,0.49,0.53,0.06,-1.30,0.61,17.867906984311283,4.694298848729007,0.7486647181269672,
55010.6,95.90000000000146,0.28,0.38,0.67,-0.56,-0.08,0.42,20.48570965331687,4.198040405292116,0.8028901141444669,
55010.7,96.0,0.21,0.51,0.59,-0.04,-0.86,0.11,19.81388654454244,4.064845605051104,0.7065938947028282,
55010.8,96.10000000000582,0.37,0.31,0.68,-0.67,0.56,0.07,19.42066940143928,3.9691204406606055,0.6718503700892757,
55010.9,96.20000000000437,0.02,0.40,0.90,-0.24,0.64,-0.32,18.03648801734972,4.012195964889363,0.5475073335855773,
55011.0,96.30000000000291,0.12,0.25,0.71,0.26,0.26,-0.08,17.116480362504436,4.143502268905614,0.4283565496042532,
55011.1,96.40000000000146,0.19,0.42,0.83,0.08,0.70,-0.37,17.380362481835643,4.397605676652754,0.5191902421030883,
55011.2,96.5,-0.07,0.34,0.54,-0.09,2.50,-0.56,18.661613006382915,4.808317754064089,0.457796483236108,
55011.3,96.60000000000582,-0.42,0.38,0.63,-0.27,3.48,-0.52,24.203063855636127,5.4216713725610965,0.6620346549505597,
55011.4,96.70000000000437,-0.57,0.37,0.84,0.94,0.37,-0.22,35.69509490112052,5.820872556272288,0.7168408111342162,
55011.5,96.80000000000291,-0.51,0.45,0.73,0.05,0.29,0.15,38.55839597286173,5.860851029072694,0.7207243079764899,
55011.6,96.90000000000146,-0.58,0.42,0.65,-0.09,-0.16,0.10,39.670302494435305,5.8533780181807495,0.6898242584245243,
55011.7,97.0,-0.57,0.43,0.67,-0.11,-0.24,0.10,38.43383145094957,5.785755061778204,0.7366048216820958,
55011.8,97.10000000000582,-0.55,0.41,0.69,-0.25,-0.25,0.12,39.107505673463756,5.7692921815277,0.7426379858788695,
55011.9,97.20000000000437,-0.48,0.39,0.75,-0.49,-0.62,0.34,37.461053108528596,5.808277730921965,0.717301013977995,
55012.0,97.30000000000291,-0.46,0.33,0.91,-0.51,-1.55,0.51,35.27112841971462,5.805919862986884,0.7099251461528379,
55012.1,97.40000000000146,-0.18,0.40,0.81,0.00,-1.76,0.41,28.948901533564275,5.7239624091504115,0.7022138490141973,
55012.2,97.5,-0.10,0.37,0.83,-0.39,-1.57,0.55,23.51570964270481,5.475947249774266,0.5998759244380084,
55012.3,97.60000000000582,0.10,0.34,0.91,-0.31,-1.90,0.54,18.379744285489938,4.965296724060996,0.4474902091413951,
55012.4,97.70000000000437,0.22,0.19,0.79,-0.61,-0.01,0.10,17.84660191745196,3.9180465116831984,0.4589250210321451,
55012.5,97.80000000000291,0.24,0.17,0.68,-0.15,-0.12,-0.23,17.39855166385984,3.9269908169872414,0.36052976365785766,
55012.6,97.90000000000146,0.12,0.09,1.00,0.31,0.57,0.02,18.6605492952378,3.625251886769242,0.34197421354683133,
55012.7,98.0,-0.17,0.12,0.74,0.65,0.51,0.55,17.113693347725967,4.171658631507394,0.32824248121528654,
55012.8,98.10000000000582,0.26,0.44,0.62,0.38,-0.80,0.49,18.525188258152735,4.1073509879067736,0.6515684420371388,
55012.9,98.20000000000437,0.28,0.40,0.62,-0.65,1.45,-0.06,19.884355659663704,4.128965861892793,0.7343117728337195,
55013.0,98.30000000000291,0.33,0.25,0.62,-1.51,0.81,-0.21,16.407867015550803,4.414246427970879,0.6798361556543799,
55013.1,98.40000000000146,0.14,0.12,1.10,-1.96,0.63,-0.54,13.266080807834694,4.651294892250017,0.2879209528637553,
55013.2,98.5,-0.01,-0.15,1.33,-1.04,0.83,-0.32,14.25513591657407,0.657020323729839,0.2948418190670232,
55013.3,98.60000000000582,0.00,-0.10,1.15,-0.15,0.15,0.09,17.396289834329618,0.8263935695558544,0.6128873922539919,
55013.4,98.70000000000437,-0.12,-0.18,0.83,-0.06,0.36,0.12,17.118443270344414,0.8542546526984929,0.643963879653662,
55013.5,98.80000000000291,-0.07,-0.17,0.96,-0.02,-0.02,0.01,18.219950603665204,0.6979256104627922,0.6376200135979209,
55013.6,98.90000000000146,-0.11,-0.16,0.89,-0.01,0.44,0.03,17.75400236566392,0.6929182349803384,0.6866931167045063,
55013.7,99.0,-0.13,-0.16,0.92,-0.01,0.17,0.10,19.067189095406803,0.5135688120274113,0.6813439199119646,
55013.8,99.10000000000582,-0.15,-0.18,0.93,0.02,0.03,0.01,20.59462551249719,0.48564189802287355,0.6463847058263795,
55013.9,99.20000000000437,-0.16,-0.18,0.89,0.07,0.03,0.02,20.812003747837448,0.5596282029899963,0.6990969189161232,
55014.0,99.30000000000291,-0.20,-0.15,0.88,0.02,-0.04,0.03,20.985235285790818,0.44322274464799666,0.7312610553103167,
55014.1,99.40000000000146,-0.16,-0.16,0.92,0.03,0.07,0.00,20.653082094447793,0.38199065614650646,0.7292844044848232,
55014.2,99.5,-0.16,-0.14,0.91,0.01,0.00,0.02,19.93826722661726,0.5598984658338655,0.6609055399643187,
55014.3,99.60000000000582,-0.17,-0.14,0.90,0.02,0.03,0.01,20.682971256567562,0.4328174856776958,0.7199689309211085,
55014.4,99.70000000000437,-0.18,-0.15,0.91,0.01,0.01,0.02,20.053503434562252,0.41214321673402027,0.6959469451732296,
55014.5,99.80000000000291,-0.17,-0.13,0.90,-0.01,-0.04,0.00,20.479089335221914,0.4968719065887656,0.7438419048917579,
55014.6,99.90000000000146,-0.17,-0.15,0.90,-0.01,0.02,0.01,20.097173930679904,0.483846881581874,0.7221984997625863,
55014.7,100.0,-0.18,-0.14,0.90,-0.02,-0.01,0.07,18.867975514082055,0.4342982407794943,0.7025484672954055,
55014.8,100.10000000000582,-0.18,-0.14,0.90,-0.01,-0.00,0.01,18.883453074054014,0.40634497189284474,0.7340776483802701,
55014.9,100.20000000000437,-0.17,-0.14,0.89,-0.01,-0.09,-0.02,20.159516363246418,0.5017307915463904,0.7264489678284809,
55015.0,100.30000000000291,-0.16,-0.15,0.92,-0.01,0.03,0.03,20.30196788491204,0.47772151663587176,0.6967673331255599,
55015.1,100.40000000000146,-0.17,-0.14,0.90,-0.01,0.04,0.02,19.578268564916563,0.4766128468213332,0.7820645323050978,
55015.2,100.5,-0.16,-0.15,0.90,-0.01,0.00,0.00,20.165160549819582,0.4437720605307327,0.7640536808741814,
55015.3,100.60000000000582,-0.16,-0.15,0.90,0.00,0.04,0.01,20.924476098578907,0.39736725322695393,0.6973193100892803,
55015.4,100.70000000000437,-0.16,-0.14,0.90,-0.01,0.02,0.02,21.06852154281358,0.37372681996555346,0.7076348367615605,
55015.5,100.80000000000291,-0.17,-0.14,0.90,-0.02,0.07,-0.01,19.57378859597702,0.48321326309142354,0.7441296280572791,
55015.6,100.90000000000146,-0.18,-0.14,0.88,-0.00,-0.06,0.06,20.60891554643281,0.5368816353191169,0.7506627920262126,
55015.7,101.0,-0.15,-0.13,0.90,0.02,0.10,0.06,21.176630987954624,0.38940152221284324,0.7214820750485389,
55015.8,101.10000000000582,-0.20,-0.15,0.89,-0.01,0.04,0.04,20.818294838915122,0.4236689218775161,0.7366925802402606,
55015.9,101.20000000000437,-0.18,-0.14,0.90,0.01,0.08,0.03,20.113363716693435,0.3457962673366184,0.7749580842173274,
55016.0,101.30000000000291,-0.21,-0.13,0.89,0.03,0.10,0.03,20.033017745711703,0.4655505562756496,0.7808331847402966,
55016.1,101.40000000000146,-0.20,-0.12,0.89,0.03,0.11,0.05,20.84484588573396,0.36489863742754314,0.7703264093148317,
55016.2,101.5,-0.22,-0.14,0.90,0.02,0.11,0.05,20.99669735934678,0.3185410285075156,0.7167753628447889,
55016.3,101.60000000000582,-0.25,-0.14,0.88,0.02,0.21,-0.01,22.019457304847457,0.3546348471963312,0.7319276261866479,
55016.4,101.70000000000437,-0.25,-0.13,0.89,0.02,0.02,0.06,22.79857013060249,0.25838667961795087,0.7953373528822412,
55016.5,101.80000000000291,-0.23,-0.12,0.89,0.01,0.12,0.03,22.90699019950024,0.2885777825242086,0.75133050660291,
55016.6,101.90000000000146,-0.23,-0.10,0.90,-0.00,0.02,0.05,22.177998106231318,0.23730959040738664,0.7154439270012243,
55016.7,102.0,-0.26,-0.12,0.89,-0.00,0.08,0.04,22.755342229902848,0.14819760129514634,0.7621594580613592,
55016.8,102.10000000000582,-0.26,-0.12,0.90,0.01,0.03,0.04,23.87682349057345,0.23924526209905148,0.8130621180222899,
55016.9,102.20000000000437,-0.23,-0.11,0.89,-0.01,0.02,0.03,22.88406213940174,0.23351571428198006,0.7922637319126198,
55017.0,102.30000000000291,-0.25,-0.12,0.89,-0.01,0.03,0.00,23.12837867209892,0.22616799017074093,0.8026303513357592,
55017.1,102.40000000000146,-0.26,-0.11,0.88,0.01,0.02,0.01,22.98467532944505,0.17485609690605264,0.7549419053692881,
55017.2,102.5,-0.27,-0.11,0.88,0.01,0.05,0.02,23.19734683104945,0.24345469644852402,0.8551444356914752,
55017.3,102.60000000000582,-0.27,-0.11,0.89,-0.03,0.14,-0.05,22.5054171256611,0.2959121257110841,0.8406877558802393,
55017.4,102.70000000000437,-0.21,-0.11,0.88,0.01,-0.01,-0.07,23.315340443579203,0.24454793809966013,0.8103487725016394,
