time,ax,ay,az,gx,gy,gz,mx,my,mz,
54914.7,-0.23,-0.12,0.89,-0.03,-0.01,0.01,-15.00,-38.52,5.18,
54914.8,-0.25,-0.14,0.89,-0.03,0.04,0.00,-15.29,-38.66,6.35,
54914.9,-0.25,-0.13,0.89,-0.05,-0.04,0.03,-15.80,-38.92,4.26,
54915.0,-0.24,-0.14,0.90,-0.06,-0.10,0.03,-15.93,-38.52,4.68,
54915.1,-0.24,-0.15,0.91,-0.08,-0.16,0.04,-14.95,-39.35,5.01,
54915.2,-0.29,-0.17,0.91,-0.02,-0.10,0.15,-17.27,-38.59,4.97,
54915.3,-0.22,-0.15,0.88,-0.19,-0.20,0.22,-18.79,-39.33,3.26,
54915.4,-0.21,-0.11,0.91,-0.20,-0.35,0.27,-20.08,-35.93,5.35,
54915.5,-0.25,-0.12,0.86,-0.19,-0.24,0.48,-22.30,-35.71,4.80,
54915.6,-0.23,-0.12,0.89,-0.22,-0.26,0.95,-23.02,-34.16,5.07,
54915.7,-0.25,-0.20,0.91,-0.25,-0.25,1.31,-27.27,-31.82,4.34,
54915.8,-0.26,-0.23,0.85,-0.20,-0.47,1.68,-31.23,-29.39,5.38,
54915.9,-0.14,-0.27,0.86,-0.32,-0.70,1.76,-36.51,-21.56,5.35,
54916.0,-0.12,-0.32,0.98,-0.35,-0.43,1.73,-40.61,-15.74,5.35,
54916.1,-0.16,-0.34,0.87,-0.03,-0.24,1.62,-39.41,-7.01,6.18,
54916.2,-0.12,-0.28,0.79,-0.07,-0.62,1.66,-38.04,-0.17,8.20,
54916.3,-0.03,-0.31,0.90,-0.11,-0.62,1.68,-38.46,5.78,9.93,
54916.4,-0.10,-0.33,0.88,-0.04,0.00,1.65,-35.75,10.16,11.03,
54916.5,-0.11,-0.31,0.88,0.04,-0.29,1.50,-30.52,14.20,11.55,
54916.6,-0.09,-0.29,0.90,-0.00,-0.41,1.43,-25.06,18.95,10.77,
54916.7,-0.06,-0.24,0.89,-0.01,-0.18,1.45,-21.28,20.70,12.22,
54916.8,-0.16,-0.24,0.89,-0.08,-0.03,1.45,-14.95,20.19,11.04,
54916.9,-0.16,-0.26,0.88,-0.05,-0.14,1.44,-9.39,20.96,13.14,
54917.0,-0.14,-0.25,0.88,-0.14,-0.10,1.42,-2.97,19.85,14.06,
54917.1,-0.17,-0.28,0.90,-0.16,-0.23,1.33,1.31,16.94,14.23,
54917.2,-0.15,-0.24,0.86,-0.12,-0.17,1.27,6.57,14.03,15.60,
54917.3,-0.14,-0.31,0.78,-0.21,0.04,1.07,12.08,10.27,15.07,
54917.4,-0.04,-0.28,0.90,-0.16,-0.27,0.78,12.43,7.87,16.41,
54917.5,-0.05,-0.27,0.95,-0.03,0.13,0.40,13.61,5.28,16.63,
54917.6,-0.15,-0.36,0.89,0.13,-0.10,0.02,13.62,4.96,16.57,
54917.7,-0.14,-0.12,0.79,0.05,0.05,-0.10,13.86,3.70,15.71,
54917.8,-0.29,-0.15,0.86,-0.14,-0.01,0.01,15.85,3.42,17.75,
54917.9,-0.18,-0.23,0.87,0.06,-0.09,-0.04,13.97,5.31,16.24,
54918.0,-0.08,-0.28,0.88,0.06,-0.31,-0.13,14.35,5.20,16.75,
54918.1,-0.23,-0.19,0.82,0.07,0.59,-0.24,13.11,3.77,16.74,
54918.2,-0.13,-0.19,0.88,0.21,-0.22,-0.14,13.62,4.28,17.24,
54918.3,-0.15,-0.15,0.91,0.07,0.13,-0.03,12.87,4.92,16.53,
54918.4,-0.19,-0.15,0.90,-0.03,-0.02,-0.00,12.94,5.65,16.24,
54918.5,-0.16,-0.18,0.90,-0.06,-0.14,-0.02,13.75,4.07,15.88,
54918.6,-0.15,-0.18,0.88,-0.02,-0.05,0.01,11.91,4.89,16.02,
54918.7,-0.11,-0.16,0.91,-0.03,-0.14,-0.01,14.46,4.79,16.07,
54918.8,-0.14,-0.19,0.90,-0.04,0.04,-0.06,11.58,5.27,16.32,
54918.9,-0.13,-0.19,0.91,-0.02,-0.01,-0.03,11.84,6.06,16.36,
54919.0,-0.14,-0.20,0.91,-0.03,-0.03,-0.00,12.08,4.79,16.74,
54919.1,-0.12,-0.20,0.89,-0.05,-0.00,0.04,11.91,4.96,16.91,
54919.2,-0.12,-0.20,0.91,0.00,0.02,0.01,12.26,5.31,17.24,
54919.3,-0.13,-0.20,0.89,0.01,0.01,0.00,10.55,5.99,15.23,
54919.4,-0.12,-0.19,0.90,0.01,0.03,0.00,12.01,5.17,15.33,
54919.5,-0.14,-0.18,0.90,-0.01,0.01,0.03,11.57,4.96,15.90,
54919.6,-0.13,-0.19,0.90,-0.00,-0.04,0.00,10.90,5.96,15.59,
54919.7,-0.13,-0.18,0.89,0.01,0.05,0.02,12.30,5.77,15.79,
54919.8,-0.13,-0.19,0.89,0.00,0.13,0.02,12.60,4.62,16.91,
54919.9,-0.13,-0.19,0.90,0.01,0.07,0.02,13.25,4.65,16.15,
54920.0,-0.16,-0.18,0.90,0.01,0.08,-0.00,12.23,4.06,16.87,
54920.1,-0.16,-0.18,0.90,0.01,0.03,0.00,13.97,4.28,16.24,
54920.2,-0.16,-0.18,0.90,-0.00,0.02,0.02,12.69,4.53,16.13,
54920.3,-0.16,-0.18,0.90,-0.02,0.02,0.02,13.28,4.28,15.57,
54920.4,-0.16,-0.19,0.90,-0.04,-0.03,0.00,13.91,4.32,15.29,
54920.5,-0.15,-0.19,0.90,0.00,-0.03,-0.00,14.24,3.73,15.30,
54920.6,-0.16,-0.18,0.90,-0.02,0.04,0.01,12.43,3.42,15.74,
54920.7,-0.16,-0.19,0.90,-0.01,0.05,0.02,13.14,4.50,15.71,
54920.8,-0.16,-0.18,0.90,-0.00,0.03,0.02,12.77,5.48,16.41,
54920.9,-0.18,-0.19,0.90,-0.01,0.05,0.01,14.14,5.82,16.41,
54921.0,-0.18,-0.18,0.90,-0.02,0.02,0.01,13.27,5.42,16.91,
54921.1,-0.17,-0.19,0.90,-0.02,-0.01,0.01,12.94,4.28,15.57,
54921.2,-0.17,-0.18,0.89,-0.02,0.01,0.02,14.31,5.65,17.92,
54921.3,-0.18,-0.18,0.89,-0.01,0.02,0.02,14.82,6.16,16.41,
54921.4,-0.17,-0.18,0.90,-0.02,-0.00,0.02,14.31,3.94,15.57,
54921.5,-0.16,-0.18,0.90,-0.02,0.04,0.02,14.65,5.99,16.57,
54921.6,-0.17,-0.19,0.90,-0.09,0.05,0.04,13.95,5.17,16.17,
54921.7,-0.19,-0.21,0.89,0.00,-0.02,-0.02,14.68,4.96,17.18,
54921.8,-0.17,-0.18,0.90,0.02,0.01,0.00,13.65,5.47,16.83,
54921.9,-0.17,-0.19,0.89,-0.00,-0.01,0.01,14.21,5.90,16.84,
54922.0,-0.17,-0.20,0.89,-0.01,0.02,0.01,13.00,5.02,16.21,
54922.1,-0.17,-0.18,0.90,0.01,0.01,0.01,14.41,5.35,16.47,
54922.2,-0.18,-0.18,0.90,0.00,0.01,0.01,14.14,4.79,16.74,
54922.3,-0.18,-0.18,0.89,-0.01,0.02,0.01,12.26,6.33,16.91,
54922.4,-0.18,-0.19,0.89,-0.01,0.01,0.01,13.21,5.28,16.60,
54922.5,-0.17,-0.19,0.89,-0.01,0.00,0.01,12.94,4.96,15.90,
54922.6,-0.18,-0.18,0.89,-0.01,0.02,0.01,14.39,4.52,17.57,
54922.7,-0.17,-0.19,0.90,-0.01,0.01,0.01,14.65,4.62,16.57,
54922.8,-0.18,-0.18,0.90,-0.01,0.00,0.00,13.45,4.45,16.41,
54922.9,-0.17,-0.18,0.89,-0.01,0.02,0.01,13.27,4.61,16.11,
54923.0,-0.18,-0.18,0.89,-0.02,-0.01,0.01,14.48,4.45,17.08,
54923.1,-0.18,-0.19,0.89,-0.02,0.01,0.01,14.32,4.55,15.99,
54923.2,-0.18,-0.19,0.89,-0.03,0.02,0.02,13.06,5.61,18.14,
54923.3,-0.17,-0.19,0.89,-0.02,0.00,0.01,14.49,5.47,16.76,
54923.4,-0.18,-0.19,0.89,-0.02,-0.01,0.01,12.53,3.64,16.65,
54923.5,-0.17,-0.19,0.90,-0.01,-0.01,0.01,12.94,4.96,15.90,
54923.6,-0.17,-0.19,0.90,-0.01,0.01,0.01,14.31,4.96,17.24,
54923.7,-0.17,-0.19,0.89,-0.01,0.01,0.01,14.48,5.48,16.07,
54923.8,-0.17,-0.19,0.90,-0.01,0.01,0.01,13.62,6.67,16.91,
54923.9,-0.18,-0.19,0.90,-0.06,-0.00,0.03,14.03,5.45,16.20,
54924.0,-0.18,-0.20,0.89,-0.04,0.04,0.01,13.53,5.08,17.80,
54924.1,-0.16,-0.19,0.89,-0.00,-0.02,-0.01,13.97,6.33,16.24,
54924.2,-0.12,-0.18,0.94,-0.02,0.17,0.04,14.10,5.13,17.68,
54924.3,-0.17,-0.12,0.97,0.21,0.43,-0.06,14.72,5.11,17.02,
54924.4,0.03,-0.13,1.16,0.65,-1.16,-0.52,13.80,4.79,17.41,
54924.5,-0.10,-0.08,1.10,0.95,0.08,-0.44,12.10,4.55,15.18,
54924.6,-0.13,0.00,1.05,1.28,-0.76,-0.18,9.46,1.40,15.69,
54924.7,-0.08,0.12,0.92,1.42,-0.98,-0.02,5.75,-0.51,13.89,
54924.8,-0.03,0.25,0.75,1.30,-0.98,0.03,0.54,-5.05,14.65,
54924.9,0.08,0.40,0.56,0.78,-0.60,0.10,-3.14,-8.72,13.22,
54925.0,0.19,0.42,0.62,0.03,-0.24,0.33,-6.23,-10.08,12.90,
54925.1,0.16,0.43,0.71,-0.16,0.13,0.31,-5.67,-10.82,13.94,
54925.2,0.15,0.44,0.67,-0.43,0.17,0.24,-4.68,-9.24,15.07,
54925.3,0.33,0.29,0.75,-0.17,-0.74,-0.15,-6.08,-8.52,15.08,
54925.4,0.31,0.29,0.65,-0.49,0.05,-0.01,-8.85,-8.33,17.02,
54925.5,0.42,0.27,0.89,-0.23,-0.72,-0.35,-8.96,-6.33,15.57,
54925.6,0.34,0.26,0.81,-0.18,-0.01,-0.09,-9.70,-4.46,16.34,
54925.7,0.35,0.19,0.87,0.03,-0.07,0.17,-10.34,-3.94,17.25,
54925.8,0.36,0.30,0.75,-0.03,0.21,0.05,-9.81,-4.45,18.42,
54925.9,0.34,0.29,0.78,-0.03,0.09,-0.00,-8.92,-5.35,18.64,
54926.0,0.34,0.29,0.81,-0.03,0.14,-0.00,-10.19,-5.04,17.48,
54926.1,0.32,0.28,0.79,-0.00,0.16,-0.08,-8.96,-4.62,16.91,
54926.2,0.31,0.27,0.79,0.15,0.66,-0.24,-6.39,-6.50,18.08,
54926.3,0.23,0.26,0.80,0.22,1.11,-0.45,-4.17,-6.67,17.58,
54926.4,-0.03,0.24,0.73,0.00,1.54,-0.39,-0.58,-6.84,16.74,
54926.5,-0.22,0.47,0.85,0.19,2.31,-0.36,6.26,-7.84,19.20,
54926.6,-0.10,0.72,0.56,0.67,2.05,-0.61,16.19,-9.24,23.78,
54926.7,-0.17,0.37,0.88,0.39,-0.35,-0.31,20.30,-9.58,29.14,
54926.8,-0.58,0.37,0.67,-0.07,-0.01,0.11,20.57,-11.51,27.09,
54926.9,-0.51,0.41,0.69,0.00,0.12,0.04,19.44,-8.72,27.63,
54927.0,-0.49,0.38,0.71,-0.00,-0.15,0.03,21.75,-10.89,28.01,
54927.1,-0.48,0.39,0.73,-0.14,-0.28,0.17,21.31,-10.92,28.48,
54927.2,-0.43,0.39,0.72,-0.21,-0.48,0.24,19.27,-10.26,28.47,
54927.3,-0.44,0.34,0.81,-0.34,-0.40,0.29,17.67,-10.15,25.98,
54927.4,-0.33,0.33,0.81,-0.33,-0.59,0.30,17.00,-9.02,25.48,
54927.5,-0.21,0.32,0.98,-0.23,-1.01,0.23,13.28,-8.72,23.61,
54927.6,-0.03,0.31,0.97,0.15,-2.54,0.17,10.71,-8.84,21.04,
54927.7,0.15,0.35,0.95,0.29,-3.05,0.61,2.85,-7.87,17.41,
54927.8,0.31,0.31,0.67,-0.35,-0.50,0.79,-7.53,-8.10,16.74,
54927.9,0.42,0.30,0.73,0.01,-0.48,0.00,-11.01,-5.64,18.59,
54928.0,0.42,0.24,0.84,0.05,0.22,-0.17,-11.18,-5.82,18.08,
54928.1,0.40,0.22,0.69,0.11,0.09,-0.08,-9.59,-5.69,16.96,
54928.2,0.37,0.20,0.63,0.22,0.48,-0.15,-9.30,-6.33,16.24,
54928.3,0.14,0.28,0.69,-0.01,0.17,0.06,-7.25,-7.70,13.89,
54928.4,0.15,0.31,0.70,-0.47,0.63,0.04,-6.90,-8.73,13.23,
54928.5,0.15,0.27,0.82,-1.11,1.18,-0.08,-3.83,-5.64,13.56,
54928.6,-0.02,0.23,0.98,-1.70,1.14,-0.00,-0.23,-2.39,11.04,
54928.7,-0.01,0.07,1.16,-1.36,0.83,0.05,4.04,1.20,13.56,
54928.8,-0.01,-0.12,1.13,-0.88,0.36,0.08,7.09,6.47,14.70,
54928.9,0.08,-0.19,1.59,-0.05,0.89,-0.05,8.62,9.11,14.52,
54929.0,-0.10,-0.21,0.80,-0.13,-0.38,0.00,9.79,9.16,15.66,
54929.1,-0.16,-0.13,0.88,0.07,-0.03,-0.11,10.20,9.75,15.57,
54929.2,-0.14,-0.21,0.96,0.01,-0.05,0.00,11.32,9.79,14.91,
54929.3,-0.14,-0.19,0.92,-0.02,0.09,0.02,11.06,9.24,15.40,
54929.4,-0.15,-0.19,0.90,-0.01,0.01,-0.00,11.57,9.75,14.90,
54929.5,-0.15,-0.18,0.91,-0.02,0.02,0.03,11.09,8.66,15.64,
54929.6,-0.16,-0.19,0.89,-0.01,-0.00,0.02,9.52,9.41,14.56,
54929.7,-0.15,-0.17,0.89,0.00,-0.03,0.02,11.40,9.58,14.73,
54929.8,-0.15,-0.17,0.89,-0.01,0.05,-0.00,10.93,9.46,16.20,
54929.9,-0.15,-0.18,0.90,-0.01,0.01,0.01,11.74,9.24,15.74,
54930.0,-0.15,-0.18,0.90,-0.01,0.01,0.01,10.89,10.10,16.24,
54930.1,-0.16,-0.18,0.90,-0.01,0.02,0.01,11.91,9.41,14.56,
54930.2,-0.15,-0.18,0.90,-0.01,-0.00,0.02,10.55,9.07,14.23,
54930.3,-0.15,-0.17,0.90,-0.02,-0.01,0.02,11.12,8.75,15.42,
54930.4,-0.16,-0.16,0.90,-0.02,0.02,-0.02,10.89,9.41,15.90,
54930.5,-0.13,-0.17,0.91,-0.01,-0.00,0.01,10.03,9.24,15.40,
54930.6,-0.16,-0.18,0.90,-0.02,0.01,0.01,11.34,9.58,16.01,
54930.7,-0.16,-0.18,0.90,-0.00,-0.04,0.02,11.74,10.61,15.07,
54930.8,-0.16,-0.18,0.90,-0.02,0.04,0.02,11.31,9.32,15.64,
54930.9,-0.17,-0.18,0.90,-0.01,-0.00,0.01,10.94,8.67,14.78,
54931.0,-0.17,-0.19,0.89,-0.02,0.06,0.01,10.90,9.31,14.91,
54931.1,-0.15,-0.17,0.90,0.01,-0.05,-0.01,10.02,9.01,15.62,
54931.2,-0.14,-0.16,0.90,0.01,-0.01,-0.00,10.29,9.66,15.82,
54931.3,-0.15,-0.18,0.90,-0.00,0.05,0.03,9.86,8.39,15.90,
54931.4,-0.15,-0.16,0.90,0.02,-0.02,0.01,10.69,9.20,15.09,
54931.5,-0.17,-0.18,0.90,0.01,0.06,0.02,12.08,8.56,15.74,
54931.6,-0.16,-0.17,0.91,0.00,0.03,0.03,10.20,9.75,14.56,
54931.7,-0.17,-0.17,0.90,0.00,0.03,0.03,11.55,9.22,15.97,
54931.8,-0.18,-0.17,0.89,0.00,0.04,0.02,11.40,9.24,15.40,
54931.9,-0.16,-0.17,0.90,-0.01,0.03,0.02,12.26,8.04,14.23,
54932.0,-0.17,-0.17,0.90,-0.01,-0.00,0.01,11.75,7.88,14.82,
54932.1,-0.16,-0.16,0.90,-0.01,0.00,0.01,11.25,8.95,15.66,
54932.2,-0.17,-0.17,0.90,-0.00,0.00,0.00,11.88,8.36,15.57,
54932.3,-0.16,-0.16,0.90,-0.01,-0.00,0.01,13.28,7.02,13.89,
54932.4,-0.17,-0.17,0.90,-0.01,0.01,0.01,11.52,8.39,15.89,
54932.5,-0.16,-0.17,0.89,-0.01,0.00,0.01,11.73,8.29,15.72,
54932.6,-0.17,-0.16,0.90,-0.01,0.00,0.01,12.60,10.10,15.23,
54932.7,-0.16,-0.16,0.90,-0.01,0.00,0.01,11.84,8.65,16.36,
54932.8,-0.17,-0.16,0.90,-0.01,0.01,0.01,11.31,8.47,15.52,
54932.9,-0.16,-0.16,0.90,-0.01,0.01,-0.00,11.71,9.54,14.80,
54933.0,-0.17,-0.17,0.90,-0.02,0.07,0.01,11.37,9.34,16.04,
54933.1,-0.17,-0.17,0.90,-0.01,0.01,0.01,11.49,8.71,16.74,
54933.2,-0.17,-0.17,0.90,-0.01,0.03,0.02,12.08,8.56,15.07,
54933.3,-0.18,-0.17,0.90,-0.01,0.03,0.02,11.40,8.22,15.74,
54933.4,-0.18,-0.17,0.89,0.00,0.02,0.02,11.92,8.33,14.80,
54933.5,-0.17,-0.17,0.90,-0.01,0.01,0.01,12.95,8.26,16.03,
54933.6,-0.17,-0.17,0.89,-0.01,-0.00,0.01,11.98,8.60,14.96,
54933.7,-0.17,-0.17,0.90,-0.00,0.03,0.01,12.44,9.09,16.57,
54933.8,-0.16,-0.16,0.92,-0.00,0.03,-0.00,11.23,8.73,15.90,
54933.9,-0.17,-0.14,0.97,-0.05,0.26,-0.03,11.76,7.92,14.45,
54934.0,-0.13,-0.16,1.07,0.19,-0.07,0.00,13.11,8.14,16.54,
54934.1,-0.08,-0.06,1.22,0.87,-0.25,-0.04,10.72,6.50,15.07,
54934.2,-0.10,0.02,1.17,1.55,-0.32,-0.00,10.82,4.88,15.48,
54934.3,-0.10,0.11,0.92,1.81,-0.45,0.04,9.35,0.00,15.74,
54934.4,-0.17,0.24,0.72,1.46,-0.75,0.18,6.57,-5.25,13.85,
54934.5,0.01,0.48,0.54,0.63,-0.89,0.23,2.16,-10.60,12.72,
54934.6,0.02,0.35,0.55,-0.18,-0.21,0.24,-0.23,-10.95,14.73,
54934.7,0.13,0.28,0.71,-0.52,-0.74,0.23,-2.40,-9.53,13.69,
54934.8,0.10,0.27,0.73,-0.73,-0.36,0.27,-3.83,-8.38,15.57,
54934.9,0.39,0.18,0.99,-0.44,-0.48,0.32,-4.00,-5.13,15.74,
54935.0,0.30,0.34,0.99,-0.39,1.12,0.13,-8.91,-4.71,16.17,
54935.1,0.09,0.23,0.75,0.15,0.62,-0.07,-4.34,-5.47,16.74,
54935.2,-0.12,0.28,0.53,-0.35,1.92,-0.19,-0.83,-6.07,16.97,
54935.3,-0.49,0.32,0.60,-0.21,3.62,-0.16,5.22,-6.21,18.82,
54935.4,-0.77,0.03,0.64,0.96,1.02,-0.57,20.71,-6.92,27.20,
54935.5,-0.37,0.28,0.81,-0.22,0.39,0.40,21.74,-8.06,28.40,
54935.6,-0.57,0.31,0.68,0.11,-0.09,-0.03,21.67,-8.55,30.48,
54935.7,-0.51,0.33,0.76,0.05,0.12,0.05,22.35,-10.26,29.48,
54935.8,-0.50,0.35,0.72,-0.13,-0.17,0.14,22.18,-9.41,29.98,
54935.9,-0.46,0.33,0.79,-0.22,-0.34,0.16,22.52,-9.41,29.98,
54936.0,-0.41,0.36,0.81,-0.37,-0.87,0.17,20.31,-8.80,26.03,
54936.1,-0.29,0.25,0.91,-0.39,-0.80,0.17,18.75,-8.61,25.51,
54936.2,-0.17,0.25,0.97,-0.09,-1.54,0.07,14.48,-6.84,22.77,
54936.3,-0.04,0.31,1.01,0.02,-2.32,0.23,8.83,-4.28,19.92,
54936.4,-0.09,0.31,0.39,-0.05,-1.93,0.63,-2.49,-4.96,15.90,
54936.5,0.26,0.18,0.69,-0.25,-0.49,0.06,-6.74,-2.74,15.74,
54936.6,0.42,0.26,0.91,-0.05,0.31,-0.07,-9.21,-2.31,16.56,
54936.7,0.28,0.09,0.81,0.48,-0.22,-0.30,-7.76,-2.74,17.41,
54936.8,0.41,0.20,0.73,0.82,-0.94,-0.12,-11.53,-4.79,15.40,
54936.9,0.21,0.30,0.66,0.30,0.99,0.32,-11.69,-8.57,15.04,
54937.0,0.13,0.22,0.60,-0.29,1.03,0.24,-8.62,-10.43,13.22,
54937.1,0.16,0.26,0.61,-1.16,1.34,0.11,-5.69,-7.72,12.99,
54937.2,0.24,0.32,0.81,-1.61,0.48,-0.53,0.83,-3.39,12.52,
54937.3,0.01,0.20,1.01,-1.59,1.99,-0.73,3.19,2.40,12.38,
54937.4,-0.06,-0.35,1.97,-1.19,0.76,-0.62,8.90,7.70,14.26,
54937.5,-0.23,0.10,0.58,0.22,-1.63,-0.22,14.14,9.48,16.14,
54937.6,-0.05,-0.26,1.08,-0.04,0.82,0.18,11.40,9.91,15.74,
54937.7,-0.20,-0.18,0.96,-0.06,-0.36,-0.03,12.67,8.60,15.44,
54937.8,-0.17,-0.18,0.89,0.01,0.09,0.00,11.40,9.93,15.40,
54937.9,-0.19,-0.13,0.89,-0.01,-0.05,-0.01,12.26,10.44,17.58,
54938.0,-0.15,-0.19,0.89,-0.07,-0.01,0.10,10.55,9.75,14.56,
54938.1,-0.20,-0.15,0.90,-0.00,0.04,-0.01,12.94,9.75,15.23,
54938.2,-0.17,-0.16,0.90,0.00,-0.03,0.03,11.39,9.91,14.74,
54938.3,-0.19,-0.18,0.90,-0.03,0.03,0.06,11.51,9.24,15.51,
54938.4,-0.20,-0.17,0.89,-0.01,0.04,0.02,12.60,9.75,15.23,
54938.5,-0.18,-0.17,0.89,-0.02,0.07,0.02,12.77,9.24,17.08,
54938.6,-0.21,-0.17,0.88,-0.03,0.04,0.04,11.40,8.90,17.08,
54938.7,-0.21,-0.17,0.89,-0.02,-0.08,0.04,12.60,10.78,16.24,
54938.8,-0.18,-0.17,0.89,-0.00,-0.08,-0.00,14.14,9.01,15.88,
54938.9,-0.18,-0.18,0.90,-0.02,-0.01,0.00,14.31,10.44,15.23,
54939.0,-0.20,-0.17,0.89,-0.05,-0.02,0.01,12.26,10.44,16.24,
54939.1,-0.20,-0.18,0.89,-0.02,0.02,0.02,12.99,9.96,15.85,
54939.2,-0.20,-0.19,0.89,0.01,-0.08,0.02,12.08,8.90,16.41,
54939.3,-0.19,-0.18,0.90,-0.01,0.02,0.01,12.25,9.76,15.07,
54939.4,-0.18,-0.17,0.89,-0.01,-0.01,0.01,13.09,9.91,15.45,
54939.5,-0.17,-0.18,0.90,-0.00,-0.02,-0.00,11.91,8.04,17.24,
54939.6,-0.19,-0.17,0.89,-0.02,-0.00,0.00,12.43,9.65,16.04,
54939.7,-0.18,-0.18,0.90,-0.02,-0.02,0.02,11.87,10.17,14.79,
54939.8,-0.19,-0.17,0.89,-0.01,0.00,0.01,12.94,9.75,16.24,
54939.9,-0.19,-0.19,0.88,-0.01,0.06,-0.01,10.75,9.62,16.31,
54940.0,-0.18,-0.18,0.89,-0.04,-0.00,-0.00,11.06,8.56,16.74,
54940.1,-0.18,-0.18,0.90,-0.02,-0.02,0.02,12.94,9.41,16.91,
54940.2,-0.20,-0.19,0.89,-0.02,0.02,0.02,12.94,11.46,17.23,
54940.3,-0.19,-0.18,0.90,0.01,-0.00,0.01,12.08,9.93,16.41,
54940.4,-0.17,-0.18,0.90,0.00,-0.01,0.02,10.75,10.23,15.93,
54940.5,-0.21,-0.19,0.89,-0.00,0.04,0.02,12.02,10.09,15.46,
54940.6,-0.20,-0.18,0.89,0.00,0.05,0.00,10.37,9.93,15.40,
54940.7,-0.19,-0.18,0.91,0.01,0.03,0.02,11.23,10.10,17.24,
54940.8,-0.27,-0.20,0.92,0.06,0.26,-0.04,11.74,8.56,17.08,
54940.9,-0.15,-0.18,0.99,0.04,-0.01,0.03,11.91,10.78,17.24,
54941.0,-0.20,-0.17,1.01,0.28,-0.15,0.02,12.26,9.41,17.32,
54941.1,-0.09,-0.08,1.22,0.80,-0.30,0.08,10.89,7.70,16.24,
54941.2,-0.13,0.02,1.12,1.49,-0.39,-0.01,11.70,3.50,16.15,
54941.3,-0.13,0.09,0.99,1.71,-0.54,0.18,9.68,-0.64,14.97,
54941.4,-0.18,0.28,0.75,1.58,-0.07,0.26,4.56,-5.82,13.06,
54941.5,-0.11,0.42,0.48,0.93,-1.26,0.36,5.66,-10.34,13.51,
54941.6,0.12,0.42,0.50,-0.32,-0.82,0.31,-0.06,-12.73,14.36,
54941.7,0.19,0.22,0.66,-0.66,0.03,0.06,-2.46,-8.38,13.22,
54941.8,0.12,0.25,0.64,-0.77,0.37,0.09,-1.87,-8.16,15.30,
54941.9,0.39,0.24,1.09,0.06,-1.80,-0.59,-2.63,-5.47,15.40,
54942.0,0.34,0.27,0.76,-0.03,0.05,0.10,-7.17,-5.67,16.26,
54942.1,0.28,0.31,0.83,-0.03,-0.03,0.14,-6.78,-5.80,16.91,
54942.2,0.30,0.27,0.79,0.05,0.04,-0.06,-8.62,-5.64,16.91,
54942.3,0.21,0.33,0.74,0.05,0.80,-0.14,-5.81,-5.62,16.50,
54942.4,0.04,0.35,0.70,-0.09,1.98,-0.35,-4.25,-5.54,16.07,
54942.5,-0.36,0.44,0.68,-0.04,3.37,-0.62,6.78,-6.33,18.59,
54942.6,-0.79,0.27,0.73,1.38,1.90,-1.03,21.46,-7.13,27.69,
54942.7,-0.37,0.32,0.78,-0.12,0.14,0.28,21.15,-8.72,25.96,
54942.8,-0.51,0.30,0.73,0.12,-0.41,-0.07,21.67,-8.55,28.81,
54942.9,-0.47,0.37,0.77,-0.16,0.13,0.21,19.61,-9.58,27.80,
54943.0,-0.40,0.31,0.83,-0.39,-0.74,0.22,21.15,-9.07,27.97,
54943.1,-0.33,0.28,0.84,-0.47,-0.82,0.23,18.42,-7.35,24.62,
54943.2,-0.20,0.30,0.88,-0.12,-1.42,0.10,15.94,-7.24,23.54,
54943.3,-0.13,0.29,0.94,-0.14,-1.88,0.27,10.37,-4.79,20.43,
54943.4,0.06,0.33,0.89,-0.02,-2.32,0.45,2.07,-3.31,17.89,
54943.5,0.28,0.23,0.75,-0.53,-0.49,0.47,-4.47,-3.39,17.05,
54943.6,0.42,0.11,0.85,-0.08,-0.73,-0.01,-5.71,-1.37,16.74,
54943.7,0.22,0.10,0.88,0.34,0.57,-0.01,-8.83,-1.49,16.96,
54943.8,0.33,0.20,0.82,0.76,-0.30,-0.08,-5.17,-2.49,16.96,
54943.9,0.23,0.27,0.73,0.51,0.02,0.04,-8.79,-4.10,15.74,
54944.0,0.16,0.26,0.67,0.39,0.54,-0.05,-7.23,-7.88,14.72,
54944.1,0.13,0.44,0.66,-0.21,0.65,-0.14,-5.54,-10.78,12.89,
54944.2,0.21,0.33,0.70,-1.07,0.62,0.01,-3.08,-9.71,13.75,
54944.3,0.11,0.29,0.83,-1.47,0.56,-0.11,-1.21,-4.79,12.15,
54944.4,0.11,0.19,1.08,-1.31,0.79,-0.27,0.11,-1.02,12.05,
54944.5,-0.03,-0.04,1.11,-1.29,0.85,-0.07,5.24,4.11,12.38,
54944.6,0.09,-0.23,1.66,-0.73,0.05,0.02,6.36,5.98,13.73,
54944.7,-0.07,-0.11,0.83,0.17,-0.21,-0.02,10.37,8.56,14.73,
54944.8,-0.07,-0.16,0.98,-0.19,-0.01,0.17,9.01,8.38,13.30,
54944.9,-0.09,-0.17,0.88,0.01,-0.01,-0.10,9.69,8.90,13.06,
54945.0,-0.06,-0.17,0.93,-0.04,-0.08,-0.02,9.52,9.07,13.89,
54945.1,-0.10,-0.18,0.89,-0.04,0.01,0.02,8.49,8.04,15.57,
54945.2,-0.07,-0.18,0.89,-0.04,0.02,0.01,9.52,8.39,13.22,
54945.3,-0.11,-0.18,0.91,-0.01,0.04,0.04,9.35,9.12,14.73,
54945.4,-0.10,-0.18,0.91,-0.02,0.02,0.04,9.45,8.45,13.81,
54945.5,-0.09,-0.17,0.91,-0.00,-0.02,-0.00,8.15,8.73,14.90,
54945.6,-0.10,-0.19,0.91,-0.02,-0.01,0.02,9.52,8.04,12.89,
54945.7,-0.09,-0.18,0.90,-0.01,-0.01,0.02,9.01,8.56,13.39,
54945.8,-0.11,-0.18,0.90,0.01,0.01,-0.00,9.52,10.10,14.90,
54945.9,-0.08,-0.18,0.91,0.04,0.01,-0.01,9.60,8.27,12.95,
54946.0,-0.10,-0.17,0.91,0.02,0.02,0.01,9.54,7.55,14.84,
54946.1,-0.09,-0.17,0.90,-0.01,0.01,0.04,9.52,8.04,15.23,
54946.2,-0.10,-0.17,0.90,-0.01,0.05,0.02,8.97,8.10,14.62,
54946.3,-0.10,-0.17,0.90,-0.00,-0.00,0.02,9.85,8.25,12.90,
54946.4,-0.10,-0.17,0.90,-0.00,0.01,0.02,8.88,8.64,13.22,
54946.5,-0.10,-0.18,0.91,0.00,0.00,0.00,10.89,8.22,13.79,
54946.6,-0.10,-0.17,0.91,0.01,-0.00,0.00,9.86,8.04,13.89,
54946.7,-0.10,-0.17,0.90,-0.00,0.01,0.01,9.86,7.36,13.38,
54946.8,-0.11,-0.17,0.90,-0.01,0.00,0.01,9.01,7.87,14.40,
54946.9,-0.10,-0.17,0.91,-0.00,-0.00,-0.00,9.67,8.54,14.19,
54947.0,-0.10,-0.17,0.90,-0.02,0.02,0.00,9.41,9.18,13.46,
54947.1,-0.10,-0.16,0.90,-0.02,0.01,0.02,8.32,8.56,14.40,
54947.2,-0.10,-0.16,0.91,-0.01,0.02,-0.00,9.01,7.87,14.73,
54947.3,-0.10,-0.17,0.90,-0.01,0.04,0.02,9.51,7.70,13.90,
54947.4,-0.11,-0.17,0.91,-0.00,0.02,0.01,9.08,8.96,14.40,
54947.5,-0.11,-0.17,0.91,-0.00,0.02,0.01,9.10,8.56,14.87,
54947.6,-0.10,-0.17,0.91,-0.01,0.01,0.01,9.68,7.98,14.12,
54947.7,-0.11,-0.16,0.91,-0.00,0.00,-0.01,9.86,8.04,14.56,
54947.8,-0.11,-0.16,0.91,-0.01,0.01,0.01,9.35,6.85,14.06,
54947.9,-0.11,-0.16,0.90,-0.01,0.01,0.01,10.19,8.20,14.21,
54948.0,-0.10,-0.16,0.91,-0.01,0.01,0.01,10.20,6.33,13.89,
54948.1,-0.12,-0.16,0.91,-0.01,0.02,0.01,9.78,7.12,14.47,
54948.2,-0.11,-0.16,0.90,-0.01,0.01,0.01,8.83,7.36,14.56,
54948.3,-0.12,-0.16,0.91,-0.01,0.03,0.01,10.80,7.99,12.92,
54948.4,-0.11,-0.17,0.90,-0.01,0.02,0.01,10.51,8.82,14.18,
54948.5,-0.11,-0.16,0.91,-0.01,0.02,0.01,9.69,8.56,13.39,
54948.6,-0.11,-0.16,0.90,-0.01,0.02,0.01,9.70,8.20,14.60,
54948.7,-0.11,-0.16,0.91,-0.02,0.01,0.01,9.98,7.73,14.51,
54948.8,-0.11,-0.16,0.91,-0.02,0.00,0.01,9.45,7.99,14.44,
54948.9,-0.11,-0.16,0.91,-0.01,-0.00,0.01,8.83,8.04,14.70,
54949.0,-0.11,-0.17,0.91,-0.01,-0.01,0.01,10.55,7.70,12.89,
54949.1,-0.11,-0.17,0.91,-0.01,0.01,0.01,10.00,7.65,13.84,
54949.2,-0.11,-0.16,0.90,-0.02,0.01,0.01,9.87,7.57,13.81,
54949.3,-0.12,-0.17,0.90,-0.00,-0.01,-0.00,9.69,7.53,14.40,
54949.4,-0.12,-0.16,0.91,-0.02,0.02,0.01,9.94,7.39,14.39,
54949.5,-0.12,-0.17,0.90,-0.02,0.01,0.01,9.66,8.50,15.07,
54949.6,-0.12,-0.17,0.91,-0.02,0.01,0.02,11.06,8.56,12.72,
54949.7,-0.12,-0.17,0.90,-0.01,0.02,0.00,10.74,6.86,15.12,
54949.8,-0.12,-0.17,0.90,-0.01,-0.02,0.00,11.57,7.70,14.56,
54949.9,-0.12,-0.16,0.91,-0.01,0.01,0.01,10.03,7.53,14.40,
54950.0,-0.12,-0.16,0.91,-0.01,-0.01,0.00,10.37,7.87,14.40,
54950.1,-0.12,-0.17,0.90,-0.02,0.03,0.01,10.89,8.04,13.89,
54950.2,-0.12,-0.17,0.91,-0.01,0.00,0.01,10.55,9.41,14.56,
54950.3,-0.09,-0.18,0.99,-0.00,0.00,0.03,11.17,8.10,14.17,
54950.4,-0.09,-0.10,1.08,0.22,-0.03,-0.05,10.37,8.56,15.07,
54950.5,-0.04,-0.13,1.20,0.60,-0.45,0.06,9.86,6.33,13.22,
54950.6,-0.05,-0.01,1.07,1.03,-0.22,0.12,7.98,4.67,13.83,
54950.7,-0.04,0.09,0.98,1.33,-0.72,0.06,6.61,1.71,13.39,
54950.8,-0.01,0.20,0.90,1.22,-0.89,0.07,4.91,-1.44,13.48,
54950.9,0.05,0.33,0.72,0.83,-0.77,0.07,1.99,-4.62,13.56,
54951.0,0.05,0.29,0.65,0.15,-0.16,-0.01,-2.29,-4.79,14.06,
54951.1,0.01,0.23,0.74,-0.13,-0.23,0.06,-2.96,-6.56,13.91,
54951.2,0.18,0.29,0.70,-0.17,-0.28,0.17,-4.85,-6.33,13.56,
54951.3,0.13,0.26,0.68,-0.46,0.14,0.12,-4.92,-5.53,15.11,
54951.4,0.10,0.23,0.52,-1.07,0.19,0.23,-4.17,-4.28,14.90,
54951.5,0.16,0.31,0.99,0.00,1.84,-0.38,-5.22,-2.93,15.98,
54951.6,-0.06,0.27,0.42,-0.47,2.27,-0.48,3.29,-4.77,18.67,
54951.7,-0.28,0.25,1.97,-0.05,4.48,0.09,11.85,-4.19,20.95,
54951.8,-0.23,0.35,0.99,0.47,-0.10,-0.05,19.61,-7.18,26.46,
54951.9,-0.53,0.30,0.70,-0.07,0.04,0.07,20.64,-7.49,27.17,
54952.0,-0.40,0.27,0.80,0.07,0.24,0.06,22.86,-7.70,28.64,
54952.1,-0.44,0.29,0.78,-0.03,0.06,0.06,21.55,-7.59,27.38,
54952.2,-0.38,0.23,0.85,-0.23,-0.49,0.15,20.71,-7.94,27.99,
54952.3,-0.36,0.27,0.83,-0.40,-0.73,0.20,19.96,-7.53,25.46,
54952.4,-0.27,0.17,1.00,-0.35,-0.89,0.17,16.36,-7.01,24.62,
54952.5,-0.20,0.23,1.01,-0.16,-1.56,0.13,14.14,-6.16,22.44,
54952.6,-0.12,0.31,1.05,0.31,-2.84,0.34,8.66,-3.76,19.09,
54952.7,0.18,0.17,0.40,-0.36,-2.19,0.62,-2.71,-3.37,15.45,
54952.8,0.47,0.09,0.76,-0.16,-1.40,0.24,-10.50,-1.02,18.08,
54952.9,0.44,0.14,0.76,-0.07,0.49,-0.15,-11.18,-0.35,18.43,
54953.0,0.49,0.15,0.88,0.08,0.55,0.01,-8.61,-1.07,17.22,
54953.1,0.26,0.14,0.78,0.63,0.02,-0.13,-11.18,-1.71,18.08,
54953.2,0.28,0.08,0.68,1.06,-0.55,0.30,-8.31,-4.13,16.35,
54953.3,0.42,0.29,0.60,0.83,0.39,0.04,-12.70,-10.16,14.97,
54953.4,0.09,0.51,0.46,-0.22,2.19,0.03,-8.62,-11.80,13.22,
54953.5,0.33,0.42,0.59,-1.52,0.39,0.02,-5.13,-11.74,12.01,
54953.6,0.40,0.21,0.98,-1.64,0.76,-0.37,-4.34,-4.10,11.38,
54953.7,0.13,0.06,1.04,-1.31,0.90,-0.50,-1.65,0.10,10.13,
54953.8,0.01,-0.13,1.12,-0.99,0.46,-0.11,3.30,5.28,11.14,
54953.9,0.08,-0.25,1.13,-0.45,0.13,0.17,4.21,7.19,13.06,
54954.0,0.00,-0.15,0.97,0.02,0.37,0.04,5.73,7.15,13.07,
54954.1,-0.06,-0.20,0.92,-0.27,0.07,0.15,6.36,7.63,13.97,
54954.2,-0.03,-0.17,0.92,-0.15,0.03,-0.03,7.59,9.88,14.78,
54954.3,-0.07,-0.21,0.90,-0.20,0.14,-0.03,7.95,9.83,13.36,
54954.4,-0.07,-0.23,0.90,-0.13,-0.09,-0.03,7.64,10.95,14.73,
54954.5,-0.08,-0.26,0.88,-0.09,-0.13,0.04,9.35,10.95,15.74,
54954.6,-0.04,-0.25,0.87,-0.06,0.05,-0.02,8.02,10.67,13.84,
54954.7,-0.05,-0.25,0.90,-0.04,-0.02,0.00,7.12,12.49,14.90,
54954.8,-0.03,-0.25,0.90,-0.03,0.04,0.00,8.66,11.64,14.40,
54954.9,-0.03,-0.26,0.89,-0.05,0.04,0.03,7.60,10.43,15.97,
54955.0,-0.05,-0.27,0.89,-0.00,-0.01,0.03,8.32,11.29,14.73,
54955.1,-0.04,-0.25,0.92,0.02,0.05,0.01,8.32,11.29,16.07,
54955.2,-0.06,-0.25,0.88,0.03,-0.02,0.04,6.95,12.32,14.06,
54955.3,-0.06,-0.26,0.90,0.00,0.08,0.03,10.20,11.81,14.90,
54955.4,-0.04,-0.24,0.91,-0.01,0.03,0.03,8.37,10.43,14.13,
54955.5,-0.06,-0.26,0.90,-0.01,-0.10,0.02,9.52,10.78,15.57,
54955.6,-0.04,-0.24,0.89,-0.00,-0.04,-0.02,8.16,11.13,14.90,
54955.7,-0.07,-0.25,0.90,0.01,-0.03,-0.03,7.98,9.80,16.61,
54955.8,-0.04,-0.25,0.89,0.01,0.02,-0.03,7.98,10.95,14.73,
54955.9,-0.06,-0.24,0.89,0.00,-0.01,0.02,7.83,10.33,15.34,
54956.0,-0.06,-0.25,0.90,-0.00,0.02,0.00,9.17,10.44,16.23,
54956.1,-0.05,-0.24,0.90,-0.00,0.03,0.02,7.98,11.98,16.41,
54956.2,-0.06,-0.24,0.90,-0.00,0.00,0.02,8.78,11.13,14.37,
54956.3,-0.06,-0.24,0.89,-0.01,0.03,-0.00,9.18,10.44,15.90,
54956.4,-0.07,-0.24,0.89,-0.01,0.02,0.01,8.76,10.95,15.74,
54956.5,-0.08,-0.25,0.89,-0.02,0.10,0.01,8.82,10.80,16.53,
54956.6,-0.07,-0.24,0.89,-0.01,-0.03,0.02,9.35,10.95,14.06,
54956.7,-0.07,-0.25,0.90,-0.01,-0.00,-0.00,10.37,10.27,15.40,
54956.8,-0.08,-0.23,0.88,-0.03,0.04,0.01,9.06,9.45,13.74,
54956.9,-0.07,-0.25,0.89,-0.02,-0.04,0.02,9.41,10.83,15.68,
54957.0,-0.09,-0.25,0.89,-0.03,-0.00,0.01,10.03,10.72,14.73,
54957.1,-0.08,-0.23,0.90,-0.04,-0.03,0.03,8.32,11.98,15.40,
54957.2,-0.10,-0.28,0.90,-0.08,-0.01,0.01,9.69,10.61,15.07,
54957.3,-0.04,-0.22,0.90,-0.01,-0.08,-0.03,8.52,11.44,17.20,
54957.4,-0.04,-0.26,0.87,0.07,0.09,-0.03,8.94,11.18,14.67,
54957.5,-0.08,-0.22,0.91,-0.03,0.02,0.08,9.52,11.47,15.90,
54957.6,-0.08,-0.25,0.90,-0.03,0.01,0.07,8.65,10.82,15.92,
54957.7,-0.08,-0.24,0.90,0.03,0.04,0.02,9.52,11.47,15.90,
54957.8,-0.05,-0.25,0.90,0.01,-0.01,0.04,10.20,11.12,16.24,
54957.9,-0.08,-0.25,0.89,0.00,0.11,0.03,9.29,10.65,14.41,
54958.0,-0.08,-0.24,0.90,0.01,0.01,-0.00,9.18,9.75,15.57,
54958.1,-0.10,-0.25,0.91,-0.00,-0.02,0.01,9.25,11.29,15.50,
54958.2,-0.09,-0.26,0.90,0.01,0.06,0.01,9.35,10.27,16.41,
54958.3,-0.08,-0.24,0.90,0.01,0.04,-0.02,10.89,9.41,16.57,
54958.4,-0.10,-0.24,0.89,-0.01,0.02,0.02,9.83,10.33,16.94,
54958.5,-0.10,-0.25,0.89,-0.01,0.04,0.03,11.57,10.10,16.24,
54958.6,-0.10,-0.24,0.90,-0.01,0.02,0.02,11.35,10.72,14.69,
54958.7,-0.12,-0.24,0.90,-0.02,-0.00,0.09,9.18,10.10,14.23,
54958.8,-0.11,-0.25,0.88,-0.03,0.07,0.05,11.40,9.93,15.07,
54958.9,-0.10,-0.23,0.89,-0.01,-0.03,0.02,10.53,10.45,16.02,
54959.0,-0.10,-0.24,0.89,-0.01,0.04,-0.00,9.52,10.44,14.90,
54959.1,-0.09,-0.24,0.89,-0.00,-0.03,-0.02,10.03,9.58,15.74,
54959.2,-0.12,-0.25,0.88,-0.01,0.06,0.00,10.52,10.07,14.98,
54959.3,-0.10,-0.25,0.89,-0.02,0.05,0.01,10.89,10.10,15.23,
54959.4,-0.11,-0.24,0.90,-0.02,-0.01,-0.00,11.02,10.65,16.42,
54959.5,-0.10,-0.23,0.91,-0.01,0.06,-0.01,11.09,10.10,15.30,
54959.6,-0.10,-0.25,0.88,0.01,-0.07,0.00,11.08,12.01,16.64,
54959.7,-0.13,-0.24,0.89,-0.03,0.07,-0.01,10.93,9.98,16.75,
54959.8,-0.09,-0.24,0.91,-0.03,0.03,-0.00,11.04,10.06,15.42,
54959.9,-0.09,-0.23,0.89,0.01,-0.17,-0.09,9.69,12.66,16.41,
54960.0,-0.15,-0.25,0.97,0.12,0.42,-0.01,9.88,12.09,16.89,
54960.1,-0.01,-0.24,1.06,0.43,-0.47,-0.03,9.90,10.53,16.43,
54960.2,0.07,-0.10,1.21,0.95,-0.25,-0.16,8.15,9.41,16.24,
54960.3,0.07,-0.04,1.11,1.33,-0.43,-0.35,6.94,6.58,15.59,
54960.4,-0.06,0.11,0.96,1.43,-0.82,-0.32,5.14,3.32,15.50,
54960.5,-0.22,0.11,0.75,1.18,-0.62,-0.09,0.96,-0.17,13.89,
54960.6,-0.12,0.28,0.49,0.82,-1.32,0.44,-1.97,-4.42,13.14,
54960.7,0.15,0.31,0.54,-0.10,-0.22,1.03,-9.05,-5.85,13.44,
54960.8,0.33,0.24,0.60,-0.21,-0.14,0.81,-6.39,-6.84,13.73,
54960.9,0.48,0.21,0.44,-0.64,-0.12,0.45,-8.13,-4.62,15.90,
54961.0,0.37,-0.03,1.10,0.06,1.21,-0.14,-9.81,-5.13,17.08,
54961.1,0.33,0.47,0.65,0.33,0.45,-0.18,-6.81,-4.84,16.51,
54961.2,0.22,0.39,0.60,0.29,1.99,-0.58,-3.01,-8.26,15.23,
54961.3,-0.61,0.36,0.36,-0.34,5.49,-0.61,9.69,-9.58,18.42,
54961.4,-0.60,0.36,0.52,1.30,0.11,-0.85,22.58,-10.30,29.22,
54961.5,-0.41,0.39,0.78,-0.17,0.34,0.51,21.55,-12.50,28.46,
54961.6,-0.48,0.39,0.71,-0.12,0.11,0.29,21.53,-13.51,28.32,
54961.7,-0.40,0.43,0.75,0.02,-0.29,0.17,22.73,-13.86,28.31,
54961.8,-0.38,0.43,0.80,-0.17,-0.18,0.31,22.18,-14.20,27.97,
54961.9,-0.33,0.43,0.78,-0.43,-0.70,0.41,22.35,-13.00,27.13,
54962.0,-0.23,0.38,0.81,-0.70,-0.71,0.52,19.59,-12.68,26.09,
54962.1,-0.32,0.29,0.92,-0.57,-0.79,0.38,16.36,-10.78,22.27,
54962.2,-0.02,0.27,1.13,-0.43,-1.83,0.55,14.14,-10.26,22.44,
54962.3,-0.00,0.37,0.87,-0.28,-2.88,0.99,6.22,-8.21,18.59,
54962.4,0.48,0.05,0.61,-0.58,-1.13,0.79,-3.66,-6.16,16.74,
54962.5,0.49,0.10,0.74,0.05,-0.10,-0.17,-8.62,-3.25,17.24,
54962.6,0.47,0.12,0.68,0.06,-0.14,-0.29,-6.52,-2.38,16.62,
54962.7,0.53,0.13,0.84,0.19,0.08,-0.25,-8.96,-3.93,17.24,
54962.8,0.35,0.07,0.81,0.23,0.13,-0.01,-7.56,-4.20,17.45,
54962.9,0.36,0.09,0.71,0.84,-0.54,-0.19,-7.76,-5.82,17.08,
54963.0,0.34,0.22,0.66,0.33,-0.08,0.13,-9.64,-8.72,14.56,
54963.1,0.42,0.42,0.50,-0.23,0.71,-0.08,-10.73,-10.83,14.74,
54963.2,0.19,0.21,0.82,-0.82,1.31,-0.67,-7.42,-10.26,14.73,
54963.3,0.30,0.28,0.62,-1.47,1.58,-0.31,-4.68,-7.87,11.04,
54963.4,0.22,0.16,0.84,-1.82,1.14,-0.63,1.31,-1.19,12.22,
54963.5,-0.12,-0.06,1.03,-1.48,1.89,-0.53,5.41,4.96,13.89,
54963.6,-0.11,-0.36,1.13,-0.67,-0.23,-0.37,8.87,9.05,16.03,
54963.7,-0.07,-0.37,0.97,-0.31,-0.11,-0.04,9.01,11.29,17.08,
54963.8,-0.02,-0.26,0.93,-0.05,0.36,-0.01,7.47,12.49,16.24,
54963.9,-0.07,-0.28,0.87,-0.08,0.00,0.03,8.78,13.48,16.90,
54964.0,-0.08,-0.31,0.90,-0.05,-0.07,0.08,8.15,13.52,16.24,
54964.1,-0.06,-0.29,0.87,-0.02,-0.01,0.07,8.91,13.09,16.81,
54964.2,-0.09,-0.30,0.89,-0.03,0.05,0.03,9.53,14.04,16.63,
54964.3,-0.09,-0.32,0.87,-0.01,0.04,0.00,9.44,14.07,16.26,
54964.4,-0.08,-0.30,0.87,-0.01,0.01,0.01,8.63,13.27,17.96,
54964.5,-0.08,-0.30,0.87,0.01,-0.03,0.00,8.50,12.85,16.92,
54964.6,-0.07,-0.29,0.89,-0.04,0.04,0.01,8.83,12.83,16.91,
54964.7,-0.08,-0.31,0.87,-0.01,-0.00,0.01,9.56,12.65,17.59,
54964.8,-0.08,-0.31,0.87,0.00,-0.04,-0.02,9.18,15.23,16.91,
54964.9,-0.07,-0.30,0.87,-0.01,0.05,0.01,9.18,13.18,16.91,
54965.0,-0.09,-0.31,0.88,0.00,0.05,-0.00,9.63,13.52,16.69,
54965.1,-0.08,-0.30,0.87,-0.01,0.00,0.04,10.55,13.18,16.57,
54965.2,-0.09,-0.30,0.87,-0.02,0.04,0.02,7.82,13.52,16.25,
54965.3,-0.09,-0.30,0.87,-0.00,-0.02,0.01,8.19,13.28,17.48,
54965.4,-0.08,-0.30,0.88,-0.00,0.01,0.01,9.18,12.49,17.92,
54965.5,-0.08,-0.31,0.88,-0.01,-0.03,0.02,9.39,12.96,16.82,
54965.6,-0.07,-0.30,0.88,-0.01,-0.01,0.03,8.51,13.16,17.56,
54965.7,-0.08,-0.30,0.87,-0.01,0.01,0.01,10.03,14.03,17.75,
54965.8,-0.08,-0.30,0.87,-0.01,-0.00,0.01,9.88,12.75,16.92,
54965.9,-0.08,-0.30,0.88,-0.02,0.01,0.01,10.20,11.81,16.24,
54966.0,-0.08,-0.30,0.88,-0.02,0.03,0.01,9.26,13.19,16.26,
54966.1,-0.08,-0.30,0.88,-0.02,0.02,0.02,9.18,13.18,16.91,
54966.2,-0.08,-0.31,0.87,-0.02,0.01,0.02,11.57,12.83,16.91,
54966.3,-0.08,-0.30,0.87,-0.01,-0.01,0.01,10.26,13.68,17.75,
54966.4,-0.09,-0.31,0.88,-0.01,-0.00,0.00,9.96,12.66,17.18,
54966.5,-0.08,-0.30,0.87,-0.01,0.01,0.01,8.75,13.73,16.79,
54966.6,-0.09,-0.31,0.87,-0.00,0.00,0.00,10.20,12.15,17.92,
54966.7,-0.09,-0.31,0.88,-0.00,0.00,0.02,9.35,11.98,18.42,
54966.8,-0.08,-0.31,0.87,0.00,0.02,-0.01,9.18,14.03,17.79,
54966.9,-0.09,-0.31,0.87,0.01,0.04,-0.02,9.69,13.97,18.02,
54967.0,-0.07,-0.29,0.88,-0.00,-0.00,0.02,8.87,13.69,16.27,
54967.1,-0.09,-0.30,0.88,-0.05,0.01,0.00,9.83,13.26,17.34,
54967.2,-0.08,-0.32,0.87,-0.03,-0.03,0.04,8.49,12.49,16.91,
54967.3,-0.09,-0.31,0.87,0.00,0.00,-0.03,9.84,14.18,17.92,
54967.4,-0.07,-0.31,0.88,0.00,-0.03,-0.00,9.09,14.34,17.44,
54967.5,-0.09,-0.31,0.87,-0.02,-0.01,0.02,9.30,14.89,15.90,
54967.6,-0.08,-0.31,0.87,-0.02,0.01,0.01,9.01,13.01,17.08,
54967.7,-0.08,-0.30,0.87,-0.01,-0.00,0.01,10.11,12.92,16.47,
54967.8,-0.08,-0.30,0.87,-0.00,-0.01,-0.00,9.35,14.37,17.41,
54967.9,-0.08,-0.31,0.87,-0.02,0.02,0.02,9.31,13.31,16.98,
54968.0,-0.08,-0.32,0.87,-0.00,-0.04,0.01,10.04,13.60,16.32,
54968.1,-0.07,-0.31,0.87,-0.01,-0.00,0.03,9.01,13.01,16.41,
54968.2,-0.09,-0.29,0.86,-0.01,0.03,0.03,9.75,13.28,17.48,
54968.3,-0.07,-0.32,0.87,-0.01,-0.03,0.04,8.67,13.16,16.33,
54968.4,-0.08,-0.31,0.87,-0.03,-0.01,0.06,8.34,13.71,17.20,
54968.5,-0.09,-0.31,0.87,-0.02,-0.02,0.04,9.35,13.67,16.72,
54968.6,-0.07,-0.32,0.86,-0.00,-0.02,0.00,9.18,12.49,18.25,
54968.7,-0.07,-0.31,0.88,-0.02,0.03,-0.01,9.25,12.91,17.32,
54968.8,-0.07,-0.32,0.86,-0.02,-0.01,0.01,8.83,13.17,16.23,
54968.9,-0.08,-0.32,0.87,-0.02,0.02,0.02,10.37,14.72,16.41,
54969.0,-0.07,-0.31,0.88,-0.01,0.01,0.01,9.35,13.35,16.07,
54969.1,-0.07,-0.33,0.87,-0.02,0.02,0.01,10.07,13.55,17.13,
54969.2,-0.07,-0.33,0.87,-0.02,0.07,0.01,9.01,13.35,17.08,
54969.3,-0.07,-0.32,0.88,-0.02,0.08,0.00,9.52,14.62,17.11,
54969.4,-0.05,-0.32,0.94,0.06,0.06,-0.06,8.32,13.01,17.41,
54969.5,0.00,-0.30,1.09,0.33,-0.24,-0.08,9.52,13.86,17.58,
54969.6,0.04,-0.21,1.17,0.97,-0.06,-0.28,9.30,12.41,18.08,
54969.7,-0.01,-0.08,1.09,1.47,-0.13,-0.30,9.18,9.41,16.91,
54969.8,-0.12,-0.01,0.99,1.62,-0.74,-0.14,6.08,4.60,16.26,
54969.9,-0.08,0.12,0.80,1.40,-1.12,-0.00,2.50,0.34,14.40,
54970.0,0.03,0.25,0.69,0.92,-0.98,0.30,-1.41,-3.22,13.58,
54970.1,0.15,0.30,0.60,0.33,-0.50,0.47,-6.81,-6.45,13.38,
54970.2,0.26,0.30,0.58,-0.08,-0.23,0.61,-8.10,-6.16,15.40,
54970.3,0.40,0.19,0.68,-0.16,-0.05,0.47,-5.53,-5.64,15.07,
54970.4,0.42,0.20,0.67,-0.48,0.41,0.25,-5.37,-5.47,16.74,
54970.5,0.38,0.07,1.08,0.06,-0.48,-0.44,-5.10,-4.47,16.53,
54970.6,0.29,0.34,0.79,-0.02,0.82,0.30,-5.74,-6.19,16.94,
54970.7,0.38,0.24,0.88,0.28,-0.49,-0.00,-2.46,-5.30,16.57,
54970.8,0.26,0.24,0.67,0.09,1.70,-0.28,-2.80,-5.30,16.91,
54970.9,-0.04,0.38,0.83,-0.17,3.54,-0.61,0.81,-7.78,16.55,
54971.0,-0.39,0.35,1.54,1.69,2.80,-0.76,17.23,-7.54,25.12,
54971.1,-0.37,0.43,0.82,0.78,-0.14,-0.48,22.18,-10.96,29.39,
54971.2,-0.58,0.42,0.63,0.02,0.58,0.16,22.84,-11.59,29.41,
54971.3,-0.56,0.44,0.67,0.20,-0.01,-0.00,23.38,-12.32,30.82,
54971.4,-0.56,0.44,0.68,-0.03,0.17,0.09,24.40,-12.02,30.51,
54971.5,-0.54,0.43,0.68,-0.32,-0.33,0.26,24.82,-11.71,31.23,
54971.6,-0.51,0.43,0.68,-0.30,-0.39,0.39,24.76,-14.44,31.03,
54971.7,-0.41,0.40,0.81,-0.29,-0.83,0.30,22.99,-13.64,28.94,
54971.8,-0.36,0.41,0.76,-0.64,-0.88,0.55,19.78,-13.17,26.29,
54971.9,-0.20,0.37,0.97,-0.10,-2.59,0.51,16.19,-11.29,23.78,
54972.0,0.05,0.39,0.75,-0.12,-3.13,1.12,8.24,-11.41,17.52,
54972.1,0.37,0.26,0.70,-0.76,-1.23,0.93,-2.63,-9.58,15.74,
54972.2,0.37,0.19,0.61,-0.34,-0.95,0.21,-7.93,-5.30,14.56,
54972.3,0.45,0.22,0.79,-0.03,0.22,-0.17,-10.84,-5.13,17.75,
54972.4,0.46,0.16,0.80,0.18,0.29,-0.06,-8.27,-4.28,17.24,
54972.5,0.50,0.21,0.71,0.82,-1.50,-0.38,-9.81,-5.13,15.85,
54972.6,0.48,0.30,0.59,0.49,-0.01,-0.07,-13.23,-7.63,15.85,
54972.7,0.43,0.30,0.58,0.18,0.30,-0.04,-13.58,-9.58,14.73,
54972.8,0.38,0.27,0.57,-0.39,1.09,-0.08,-11.18,-11.29,14.06,
54972.9,0.41,0.31,0.65,-0.70,0.55,-0.27,-7.25,-9.41,13.89,
54973.0,0.25,0.22,0.67,-1.50,1.74,-0.41,-4.17,-7.22,12.82,
54973.1,0.14,0.09,0.82,-1.79,0.85,-0.91,-0.38,-3.69,12.76,
54973.2,0.09,-0.18,1.23,-1.95,0.76,-0.31,2.16,2.74,13.73,
54973.3,0.06,-0.32,1.09,-0.91,0.38,-0.09,4.52,9.84,15.05,
54973.4,0.07,-0.29,0.98,-0.35,0.00,-0.02,4.56,12.32,16.41,
54973.5,0.01,-0.30,0.94,-0.18,0.26,-0.00,4.80,13.35,15.78,
54973.6,-0.07,-0.32,0.87,0.03,0.16,-0.00,7.22,14.92,16.01,
54973.7,-0.03,-0.31,0.87,-0.01,0.07,-0.02,6.67,14.95,17.02,
54973.8,-0.09,-0.33,0.89,0.00,0.15,0.02,6.61,14.90,17.08,
54973.9,-0.06,-0.32,0.85,0.00,0.05,0.00,7.27,15.23,17.39,
54974.0,-0.07,-0.31,0.88,-0.02,0.14,-0.02,7.12,13.18,17.24,
54974.1,-0.10,-0.31,0.86,-0.03,0.06,0.01,7.47,14.64,17.77,
54974.2,-0.08,-0.32,0.89,0.01,0.09,-0.00,6.72,15.36,16.83,
54974.3,-0.08,-0.30,0.86,0.01,0.04,-0.00,7.47,15.40,17.41,
54974.4,-0.06,-0.30,0.85,0.03,0.02,0.00,8.07,14.63,18.00,
54974.5,-0.10,-0.30,0.86,0.01,0.09,-0.01,7.64,14.72,17.08,
54974.6,-0.11,-0.31,0.88,0.04,0.01,0.01,7.39,15.91,18.38,
54974.7,-0.09,-0.30,0.86,0.05,0.02,0.02,8.48,13.66,17.44,
54974.8,-0.11,-0.29,0.88,0.03,0.02,0.03,8.15,12.83,19.59,
54974.9,-0.09,-0.29,0.88,0.03,0.03,0.01,7.78,13.79,17.41,
54975.0,-0.11,-0.29,0.88,0.04,0.01,0.02,8.66,14.37,18.08,
54975.1,-0.11,-0.28,0.88,0.02,0.02,0.03,8.32,13.70,17.74,
54975.2,-0.09,-0.27,0.89,-0.02,-0.06,0.05,9.28,12.80,17.52,
54975.3,-0.10,-0.29,0.88,0.01,-0.15,0.06,8.66,13.69,18.08,
54975.4,-0.10,-0.28,0.87,0.03,0.03,0.02,8.83,12.83,15.90,
54975.5,-0.09,-0.27,0.88,0.07,-0.02,-0.02,7.66,11.64,18.06,
54975.6,-0.09,-0.27,0.88,0.06,0.04,-0.04,9.18,13.18,15.57,
54975.7,-0.09,-0.26,0.87,0.06,-0.03,-0.03,8.15,13.18,17.24,
54975.8,-0.06,-0.23,0.91,0.06,0.14,-0.06,8.53,12.46,15.33,
54975.9,-0.12,-0.29,0.86,0.06,0.05,0.01,7.12,12.15,16.57,
54976.0,-0.09,-0.23,0.92,0.06,-0.01,0.00,6.61,13.01,15.07,
54976.1,-0.13,-0.22,0.87,0.10,-0.07,-0.01,8.96,12.21,15.63,
54976.2,-0.07,-0.23,0.89,0.10,-0.03,-0.06,7.30,12.32,16.07,
54976.3,-0.07,-0.23,0.91,0.05,0.05,-0.04,7.52,12.10,15.29,
54976.4,-0.07,-0.20,0.91,0.03,0.04,-0.05,8.49,12.49,15.57,
54976.5,-0.10,-0.21,0.91,0.05,0.03,-0.05,7.64,12.32,13.73,
54976.6,-0.12,-0.20,0.90,0.08,0.07,-0.02,7.58,10.89,13.67,
54976.7,-0.10,-0.18,0.92,0.07,0.00,-0.04,6.95,10.61,14.40,
54976.8,-0.11,-0.18,0.91,0.01,-0.00,-0.02,8.57,10.44,14.31,
54976.9,-0.09,-0.19,0.90,-0.06,-0.05,-0.03,7.30,10.95,13.73,
54977.0,-0.08,-0.20,0.90,-0.09,-0.00,0.01,4.73,11.12,14.90,
54977.1,-0.07,-0.19,0.90,-0.12,0.11,0.00,4.90,13.01,13.73,
54977.2,-0.11,-0.21,0.91,0.02,0.03,0.00,6.78,11.81,15.90,
54977.3,-0.09,-0.15,1.02,0.09,0.04,0.06,7.46,11.52,15.93,
54977.4,-0.06,-0.13,1.14,0.34,0.25,0.02,6.96,11.24,15.42,
54977.5,-0.03,-0.09,1.11,0.77,-0.23,0.04,7.12,10.10,15.23,
54977.6,-0.03,-0.07,1.04,1.01,-0.32,-0.16,7.24,5.84,15.20,
54977.7,-0.01,0.03,0.99,1.05,-0.14,-0.28,5.07,2.57,15.23,
54977.8,-0.08,0.05,0.84,1.14,-0.33,-0.31,5.07,-0.21,15.94,
54977.9,-0.15,0.20,0.74,0.94,-0.55,0.04,1.68,-1.65,13.59,
54978.0,-0.13,0.32,0.58,0.32,-0.70,0.50,-0.40,-5.30,14.23,
54978.1,0.16,0.36,0.68,-0.21,-1.10,0.64,-2.80,-5.30,15.23,
54978.2,0.08,0.23,0.65,-0.40,-0.74,0.69,-6.83,-3.66,15.40,
54978.3,0.66,0.07,0.75,0.08,-0.58,-0.22,-9.53,-1.85,16.19,
54978.4,0.12,0.15,1.02,-0.24,1.40,0.09,-7.68,-2.48,17.39,
54978.5,0.21,0.26,0.69,0.61,0.41,-0.35,-5.28,-4.36,17.49,
54978.6,-0.14,0.28,0.93,-0.72,6.81,-0.24,-1.94,-7.87,17.08,
54978.7,-0.87,0.22,0.47,1.85,0.05,-0.71,20.80,-8.00,26.99,
54978.8,-0.25,0.48,0.85,0.04,0.46,0.09,21.16,-11.79,27.63,
54978.9,-0.52,0.36,0.66,-0.11,-0.37,0.13,22.54,-11.06,27.95,
54979.0,-0.51,0.39,0.69,-0.01,0.05,0.12,21.23,-12.37,28.19,
54979.1,-0.48,0.42,0.72,-0.30,-0.39,0.26,21.84,-12.15,27.97,
54979.2,-0.43,0.39,0.79,-0.58,-0.72,0.40,20.96,-11.64,26.75,
54979.3,-0.38,0.37,0.79,-0.67,-0.48,0.40,18.07,-9.96,23.89,
54979.4,-0.34,0.31,0.89,-0.25,-1.20,0.31,15.68,-9.07,23.28,
54979.5,-0.16,0.33,0.90,-0.32,-1.47,0.35,12.33,-7.93,20.49,
54979.6,0.04,0.30,0.87,-0.19,-2.25,0.45,6.77,-5.21,18.36,
54979.7,0.28,0.15,0.55,-0.53,-0.63,0.54,-2.63,-3.76,16.41,
54979.8,0.31,0.19,0.77,-0.03,-0.16,-0.05,-4.84,-3.15,17.58,
54979.9,0.33,0.21,0.91,0.09,-0.18,-0.18,-6.05,-1.71,18.08,
54980.0,0.30,0.18,0.93,0.19,0.54,-0.08,-6.74,-3.42,17.08,
54980.1,0.35,0.24,0.88,0.72,-0.68,0.02,-5.02,-3.76,17.41,
54980.2,0.31,0.29,0.72,0.88,-0.76,-0.04,-7.42,-7.18,15.07,
54980.3,0.35,0.32,0.64,0.54,0.59,-0.19,-9.93,-10.63,14.30,
54980.4,0.07,0.34,0.45,-0.36,1.22,0.02,-3.31,-12.32,14.06,
54980.5,0.28,0.43,0.55,-1.17,-0.18,0.05,-1.77,-10.43,12.89,
54980.6,0.27,0.22,0.86,-1.71,1.10,-0.33,-1.60,-6.84,13.06,
54980.7,-0.01,0.08,1.11,-1.72,1.22,-0.57,3.02,-0.17,12.89,
54980.8,-0.12,-0.17,1.19,-1.07,0.12,-0.20,6.76,4.98,13.37,
54980.9,0.11,-0.17,1.22,-0.35,0.94,0.14,6.20,6.73,13.60,
54981.0,-0.36,-0.25,0.69,-0.16,0.64,0.03,9.35,8.22,14.73,
54981.1,-0.18,-0.23,1.01,-0.06,-0.04,0.03,11.57,10.40,15.58,
54981.2,-0.10,-0.18,0.88,-0.00,0.08,0.00,10.09,8.74,15.80,
54981.3,-0.12,-0.18,0.88,0.01,-0.11,-0.01,10.72,9.24,15.07,
54981.4,-0.10,-0.19,0.90,0.03,-0.09,-0.02,10.17,8.66,16.49,
54981.5,-0.08,-0.19,0.91,-0.00,-0.07,-0.02,9.69,9.58,16.07,
54981.6,-0.10,-0.20,0.90,-0.00,-0.03,0.00,8.32,7.19,16.41,
54981.7,-0.11,-0.19,0.90,0.02,0.08,0.01,8.10,9.44,14.81,
54981.8,-0.11,-0.19,0.90,0.01,0.03,0.03,9.69,7.19,15.74,
54981.9,-0.10,-0.19,0.91,0.00,0.03,0.03,10.05,8.29,16.09,
54982.0,-0.10,-0.19,0.91,0.01,0.01,0.00,8.99,8.23,14.47,
54982.1,-0.11,-0.18,0.90,-0.00,-0.01,0.02,9.52,8.39,14.23,
54982.2,-0.11,-0.18,0.91,-0.01,0.02,0.01,9.45,9.16,15.84,
54982.3,-0.10,-0.19,0.90,-0.00,0.01,0.01,9.18,7.70,14.90,
54982.4,-0.11,-0.19,0.90,0.00,0.02,0.02,10.12,8.60,15.91,
54982.5,-0.10,-0.18,0.90,-0.01,0.01,0.02,9.38,9.05,14.80,
54982.6,-0.12,-0.18,0.90,0.00,0.01,0.00,9.35,8.22,14.73,
54982.7,-0.11,-0.18,0.90,-0.01,0.02,0.01,8.95,8.64,15.15,
54982.8,-0.11,-0.18,0.90,-0.01,0.00,0.01,9.91,8.58,15.28,
54982.9,-0.12,-0.19,0.90,-0.01,0.02,0.01,10.32,7.97,15.41,
54983.0,-0.10,-0.18,0.90,-0.01,0.03,0.01,9.66,8.70,15.37,
54983.1,-0.11,-0.19,0.90,-0.00,0.02,0.01,9.26,8.31,14.48,
54983.2,-0.12,-0.18,0.89,-0.00,0.02,0.01,10.89,7.70,13.89,
54983.3,-0.12,-0.19,0.90,0.01,-0.02,-0.00,10.65,8.17,14.80,
54983.4,-0.11,-0.17,0.90,-0.00,-0.01,0.00,8.84,7.02,14.90,
54983.5,-0.12,-0.19,0.90,-0.00,0.02,0.01,9.55,7.50,13.70,
54983.6,-0.10,-0.17,0.90,-0.01,-0.00,0.02,10.45,7.42,14.25,
54983.7,-0.08,-0.17,0.90,-0.03,0.04,0.04,9.56,9.63,13.93,
54983.8,-0.12,-0.20,0.90,0.01,0.06,0.00,10.03,8.56,14.73,
54983.9,-0.12,-0.17,0.90,0.00,-0.03,-0.02,9.45,8.12,15.16,
54984.0,-0.12,-0.18,0.90,-0.01,0.04,0.02,8.49,8.73,15.57,
54984.1,-0.14,-0.19,0.89,0.03,0.12,0.00,11.16,8.03,15.20,
54984.2,-0.10,-0.16,0.90,0.01,-0.02,0.01,12.58,8.01,15.32,
54984.3,-0.12,-0.19,0.90,-0.01,0.02,0.02,9.86,8.04,15.57,
54984.4,-0.14,-0.18,0.90,0.00,0.02,-0.00,10.55,8.65,14.64,
54984.5,-0.13,-0.17,0.90,-0.00,0.02,0.01,9.86,8.04,14.90,
54984.6,-0.12,-0.18,0.91,-0.02,-0.04,0.01,11.74,8.90,14.73,
54984.7,-0.12,-0.18,0.90,-0.02,-0.04,-0.00,9.35,7.57,13.69,
54984.8,-0.11,-0.17,0.93,-0.04,0.07,-0.00,11.40,7.53,13.73,
54984.9,-0.14,-0.14,0.95,0.02,0.19,0.01,9.69,7.19,14.40,
54985.0,-0.10,-0.11,1.06,0.12,0.08,0.06,9.19,8.38,15.58,
54985.1,-0.05,-0.11,1.17,0.62,0.21,-0.21,12.26,8.39,18.25,
54985.2,-0.15,-0.03,1.15,1.13,-0.24,-0.18,11.20,5.48,16.12,
54985.3,-0.15,0.03,1.01,1.33,-0.27,-0.13,8.66,2.74,15.74,
54985.4,-0.25,0.08,0.82,1.16,0.27,0.09,9.69,-1.02,15.40,
54985.5,-0.28,0.24,0.71,1.08,-0.41,0.12,7.98,-2.74,15.74,
54985.6,-0.17,0.32,0.64,0.59,-0.86,0.53,4.21,-6.50,15.40,
54985.7,0.02,0.34,0.56,-0.02,-1.21,0.75,0.68,-9.12,12.72,
54985.8,0.23,0.30,0.71,-0.25,-1.10,0.80,-3.31,-7.99,13.84,
54985.9,0.43,0.27,0.65,-0.41,-0.40,0.41,-8.96,-6.33,14.90,
54986.0,0.39,0.21,0.79,0.01,-0.29,-0.47,-8.10,-5.82,17.41,
54986.1,0.22,0.23,0.86,-0.05,1.53,-0.12,-6.51,-5.13,16.51,
54986.2,-0.19,0.19,0.17,-0.07,2.65,-0.56,-0.92,-6.84,16.74,
54986.3,-0.79,0.25,1.97,-0.27,5.63,-0.39,11.56,-7.46,20.70,
54986.4,-0.79,0.67,0.88,1.59,1.23,-0.50,26.12,-9.58,32.49,
54986.5,-0.71,0.47,0.52,0.35,0.23,0.07,28.17,-12.32,35.17,
54986.6,-0.73,0.45,0.52,-0.03,0.10,0.21,27.98,-13.28,34.76,
54986.7,-0.67,0.45,0.53,-0.11,-0.33,0.05,28.68,-13.86,35.01,
54986.8,-0.67,0.45,0.56,-0.54,-0.75,0.25,27.90,-13.35,34.99,
54986.9,-0.60,0.41,0.64,-0.94,-1.27,0.36,25.43,-12.32,31.15,
54987.0,-0.61,0.35,0.70,-0.92,-2.05,0.61,21.50,-11.12,27.63,
54987.1,-0.35,0.27,1.02,-0.32,-2.31,0.42,15.10,-8.49,22.16,
54987.2,-0.05,0.30,0.88,-0.24,-2.71,0.54,8.66,-6.84,16.41,
54987.3,0.35,0.26,0.40,-0.47,-2.64,1.01,-3.49,-3.93,15.57,
54987.4,0.52,0.13,0.73,-0.52,-0.41,0.23,-13.32,0.38,19.53,
54987.5,0.49,0.07,0.73,0.04,-0.23,-0.19,-13.58,0.00,19.42,
54987.6,0.51,0.13,0.76,0.11,0.18,0.11,-14.61,1.03,18.42,
54987.7,0.36,0.05,0.81,0.72,0.01,0.34,-14.30,1.43,17.51,
54987.8,0.42,0.22,0.58,1.28,-0.19,-0.11,-13.96,-2.33,15.85,
54987.9,0.43,0.27,0.57,0.81,0.54,-0.55,-14.42,-7.62,15.25,
54988.0,0.22,0.30,0.50,-0.18,0.95,-0.18,-11.70,-11.12,12.89,
54988.1,0.40,0.32,0.64,-1.35,0.26,0.03,-9.47,-10.60,12.72,
54988.2,0.39,0.15,0.99,-1.76,1.21,-0.11,-7.93,-7.12,11.03,
54988.3,0.29,0.15,1.09,-1.58,0.61,-0.16,-3.87,0.45,11.63,
54988.4,0.13,-0.05,1.18,-0.96,0.84,-0.03,-2.29,5.13,10.71,
54988.5,0.02,-0.21,1.01,-0.30,0.30,0.16,2.06,8.45,12.30,
54988.6,0.04,-0.20,0.94,0.01,0.05,0.05,3.53,7.87,13.73,
54988.7,0.07,-0.18,0.91,0.04,-0.06,-0.06,3.80,8.91,13.35,
54988.8,0.07,-0.19,0.95,0.01,0.15,-0.04,1.90,7.91,11.92,
54988.9,0.02,-0.18,0.88,0.14,0.12,-0.08,2.67,7.70,12.22,
54989.0,0.06,-0.11,0.89,0.11,0.04,-0.08,3.17,7.33,12.09,
54989.1,0.00,-0.16,0.93,0.06,0.31,0.03,2.85,8.22,12.38,
54989.2,-0.04,-0.12,0.88,0.08,0.20,0.05,5.26,6.51,13.71,
54989.3,-0.02,-0.12,0.91,0.06,0.07,0.04,6.54,5.77,12.44,
54989.4,-0.03,-0.12,0.91,0.03,0.08,0.02,5.24,6.50,11.71,
54989.5,-0.02,-0.14,0.91,0.01,0.07,0.02,6.63,6.13,12.34,
54989.6,-0.04,-0.10,0.90,-0.00,-0.01,0.01,7.68,5.06,12.19,
54989.7,-0.03,-0.12,0.93,-0.01,0.08,-0.03,6.10,5.65,12.22,
54989.8,-0.05,-0.12,0.91,0.00,0.04,0.01,7.03,4.72,12.68,
54989.9,-0.06,-0.11,0.91,-0.00,0.02,0.03,6.95,5.82,13.39,
54990.0,-0.06,-0.12,0.91,-0.00,0.02,0.02,5.75,5.31,13.22,
54990.1,-0.05,-0.12,0.90,-0.02,0.00,0.01,7.43,5.64,11.57,
54990.2,-0.05,-0.12,0.92,-0.02,0.00,-0.00,7.81,7.36,14.23,
54990.3,-0.06,-0.11,0.91,-0.02,0.01,0.02,8.15,6.33,12.89,
54990.4,-0.05,-0.12,0.91,-0.02,0.01,0.01,7.88,5.49,11.68,
54990.5,-0.04,-0.12,0.91,-0.03,-0.03,0.00,5.58,4.79,13.06,
54990.6,-0.05,-0.13,0.92,-0.00,-0.01,-0.01,7.12,5.31,12.89,
54990.7,-0.04,-0.12,0.92,-0.01,0.02,0.01,6.48,5.65,13.60,
54990.8,-0.06,-0.12,0.93,-0.01,0.17,-0.01,6.44,4.28,12.89,
54990.9,-0.06,-0.12,0.91,-0.00,0.14,0.05,8.32,5.81,12.71,
54991.0,-0.07,-0.11,0.91,0.01,0.00,0.01,7.16,4.27,12.26,
54991.1,-0.07,-0.13,0.92,-0.02,0.02,0.03,5.92,5.82,11.71,
54991.2,-0.05,-0.12,0.91,-0.00,-0.01,0.02,8.35,6.05,12.66,
54991.3,-0.09,-0.12,0.91,0.01,0.03,-0.02,6.78,5.99,12.22,
54991.4,-0.04,-0.12,0.91,0.01,-0.00,-0.01,8.66,6.50,13.39,
54991.5,-0.04,-0.11,0.90,0.05,0.04,0.04,8.28,5.26,13.11,
54991.6,-0.09,-0.11,0.89,0.02,0.03,-0.00,6.61,6.16,12.72,
54991.7,-0.06,-0.10,0.91,-0.01,0.02,-0.00,7.68,5.07,12.30,
54991.8,-0.07,-0.11,0.92,-0.03,0.03,0.00,7.98,5.13,12.05,
54991.9,-0.08,-0.12,0.90,-0.03,-0.04,0.01,8.23,5.47,12.81,
54992.0,-0.06,-0.11,0.90,-0.03,0.01,0.01,7.30,4.79,12.38,
54992.1,-0.07,-0.13,0.90,-0.01,0.03,0.02,7.64,5.48,13.06,
54992.2,-0.06,-0.11,0.91,-0.01,-0.01,-0.00,8.01,5.65,12.82,
54992.3,-0.06,-0.11,0.91,-0.02,0.02,0.00,6.95,5.82,13.06,
54992.4,-0.07,-0.12,0.91,-0.01,-0.01,0.00,7.81,6.67,12.55,
54992.5,-0.01,-0.11,0.93,-0.02,0.14,-0.02,6.78,5.65,13.22,
54992.6,-0.01,-0.09,0.95,-0.05,0.35,-0.14,9.18,5.65,13.56,
54992.7,-0.09,-0.12,1.04,-0.04,0.24,-0.06,9.86,5.99,14.90,
54992.8,-0.01,-0.08,1.25,0.63,-0.63,-0.24,9.63,7.44,15.31,
54992.9,-0.05,-0.01,1.22,1.18,-0.06,-0.32,8.66,4.11,14.73,
54993.0,-0.16,0.04,0.96,1.53,-0.44,-0.32,7.60,-0.19,14.36,
54993.1,-0.16,0.12,0.81,1.35,-0.61,-0.18,4.73,-2.55,13.86,
54993.2,-0.12,0.34,0.63,0.78,-0.86,0.09,2.16,-5.82,13.06,
54993.3,0.04,0.36,0.56,0.13,-0.68,0.53,-1.93,-8.29,12.91,
54993.4,0.01,0.30,0.57,-0.59,-0.13,0.75,-3.99,-7.23,14.32,
54993.5,0.34,0.24,0.65,-0.31,-1.45,0.39,-5.02,-4.45,15.07,
54993.6,0.60,0.20,0.95,-0.08,-0.57,0.09,-10.89,-4.18,16.48,
54993.7,0.40,0.27,0.77,0.07,0.07,-0.23,-9.81,-5.13,16.41,
54993.8,0.28,0.27,0.88,0.09,0.50,-0.08,-8.71,-3.97,17.50,
54993.9,0.22,0.23,0.75,0.30,1.04,-0.20,-5.70,-5.54,16.87,
54994.0,0.09,0.36,0.79,0.44,2.28,-0.69,-1.60,-7.53,17.75,
54994.1,-0.61,0.46,0.51,-0.12,4.55,-0.87,10.69,-8.73,19.06,
54994.2,-0.89,0.33,0.42,1.66,2.49,-0.80,24.57,-9.41,31.66,
54994.3,-0.63,0.42,0.54,0.48,0.04,-0.17,28.43,-12.93,35.56,
54994.4,-0.75,0.40,0.50,-0.19,-0.14,0.17,27.45,-11.80,35.15,
54994.5,-0.70,0.42,0.53,-0.05,-0.02,0.05,27.31,-12.83,35.34,
54994.6,-0.68,0.43,0.56,-0.28,-0.50,0.14,28.05,-11.59,35.18,
54994.7,-0.63,0.43,0.64,-0.74,-1.27,0.46,26.09,-12.54,33.82,
54994.8,-0.47,0.36,0.74,-0.86,-1.72,0.52,23.34,-11.96,29.10,
54994.9,-0.23,0.33,0.93,-0.03,-2.83,0.35,17.85,-8.16,23.87,
54995.0,-0.14,0.33,0.90,-0.41,-2.63,0.75,9.01,-9.58,18.75,
54995.1,0.22,0.20,0.64,-0.47,-2.18,0.86,-1.43,-6.67,16.91,
54995.2,0.38,0.17,0.79,-0.46,-0.04,0.19,-6.71,-2.96,16.64,
54995.3,0.33,0.21,0.81,0.04,0.00,-0.17,-8.45,-0.68,17.75,
54995.4,0.36,0.19,0.77,-0.11,-0.12,-0.16,-8.04,-1.54,17.74,
54995.5,0.26,0.11,0.90,0.25,0.59,0.06,-8.96,-1.19,18.01,
54995.6,0.16,0.21,0.92,0.79,0.30,0.28,-6.56,-3.93,16.24,
54995.7,0.37,0.15,0.64,0.96,0.16,-0.14,-6.57,-6.68,16.23,
54995.8,0.08,0.42,0.45,-0.09,1.67,-0.31,-5.58,-11.70,14.40,
54995.9,0.08,0.43,0.65,-1.46,-0.15,-0.37,-0.40,-12.83,13.56,
54996.0,0.23,0.33,1.04,-2.19,0.78,-0.17,-2.13,-6.85,12.44,
54996.1,0.04,-0.06,1.29,-1.84,0.21,-0.36,2.33,1.88,11.88,
54996.2,0.11,-0.19,1.19,-1.06,0.55,0.03,1.14,6.50,12.38,
54996.3,0.01,-0.12,1.20,-0.00,0.22,-0.22,5.29,10.48,14.10,
54996.4,-0.05,-0.27,0.88,-0.09,-0.13,0.10,6.61,9.93,13.73,
54996.5,-0.04,-0.23,0.94,0.04,-0.09,-0.04,6.15,9.81,14.40,
54996.6,-0.01,-0.20,0.93,-0.10,-0.07,0.11,4.90,9.58,14.40,
54996.7,-0.07,-0.23,0.89,-0.05,0.12,0.10,6.27,9.93,14.06,
54996.8,-0.05,-0.21,0.90,-0.04,-0.08,-0.05,5.35,11.12,13.85,
54996.9,-0.01,-0.23,0.91,0.00,-0.08,-0.05,4.90,10.95,13.73,
54997.0,-0.01,-0.20,0.90,0.00,-0.02,-0.03,3.53,10.95,13.39,
54997.1,-0.01,-0.24,0.90,0.02,0.02,0.02,5.07,10.10,12.89,
54997.2,-0.02,-0.20,0.90,0.03,0.07,0.00,4.39,10.44,14.56,
54997.3,-0.05,-0.21,0.90,0.03,0.10,0.04,4.61,11.12,14.35,
54997.4,-0.02,-0.19,0.90,0.04,0.03,0.02,4.53,10.74,14.30,
54997.5,-0.03,-0.21,0.91,-0.01,0.08,0.05,5.92,10.95,13.73,
54997.6,-0.05,-0.20,0.90,-0.03,0.04,0.04,4.90,9.24,14.73,
54997.7,-0.05,-0.21,0.90,0.00,0.01,0.01,6.27,11.98,14.06,
54997.8,-0.05,-0.21,0.90,0.02,0.13,-0.03,5.75,10.10,13.89,
54997.9,-0.05,-0.19,0.90,0.01,-0.00,0.00,6.15,10.05,13.56,
54998.0,-0.06,-0.20,0.90,-0.00,0.04,0.01,5.92,9.24,14.06,
54998.1,-0.05,-0.20,0.90,0.02,0.02,0.01,7.46,10.43,13.23,
54998.2,-0.05,-0.19,0.91,0.00,0.08,0.01,6.54,9.30,13.33,
54998.3,-0.06,-0.19,0.90,0.01,0.04,0.02,7.47,9.41,14.90,
54998.4,-0.06,-0.19,0.89,-0.01,-0.02,0.00,6.48,10.67,14.28,
54998.5,-0.08,-0.20,0.90,-0.01,0.06,0.02,6.61,10.95,14.40,
54998.6,-0.09,-0.19,0.91,0.01,-0.01,-0.00,7.12,10.78,15.57,
54998.7,-0.06,-0.19,0.90,-0.01,0.01,0.02,5.41,8.39,13.22,
54998.8,-0.07,-0.20,0.90,-0.01,-0.01,0.01,6.95,8.90,14.40,
54998.9,-0.06,-0.19,0.90,-0.02,0.02,0.01,7.64,10.13,15.47,
54999.0,-0.06,-0.19,0.91,-0.01,-0.02,0.00,6.11,10.43,13.91,
54999.1,-0.07,-0.20,0.90,-0.01,0.05,0.03,6.27,10.27,14.73,
54999.2,-0.06,-0.19,0.90,-0.00,-0.03,0.00,6.29,8.88,14.75,
54999.3,-0.07,-0.20,0.89,-0.03,0.04,0.02,5.57,9.86,13.61,
54999.4,-0.07,-0.20,0.91,-0.00,0.01,0.00,6.27,9.24,14.40,
54999.5,-0.07,-0.20,0.90,-0.02,0.05,0.01,7.46,10.12,13.90,
54999.6,-0.07,-0.20,0.91,-0.01,0.00,0.01,6.78,8.73,14.90,
54999.7,-0.07,-0.21,0.89,-0.01,0.04,0.01,7.00,10.53,14.35,
54999.8,-0.08,-0.20,0.90,-0.02,0.01,0.01,5.57,10.08,14.74,
54999.9,-0.07,-0.20,0.90,-0.01,-0.01,0.01,8.15,9.75,14.56,
55000.0,-0.07,-0.20,0.90,-0.01,-0.02,0.01,6.43,10.75,14.29,
55000.1,-0.07,-0.19,0.90,-0.00,-0.01,0.00,8.98,10.91,13.76,
55000.2,-0.07,-0.20,0.89,0.00,0.01,0.00,7.26,9.34,14.42,
55000.3,-0.07,-0.20,0.90,0.00,0.03,0.01,6.65,9.84,14.85,
55000.4,-0.07,-0.19,0.90,-0.00,-0.01,0.01,6.27,10.61,15.74,
55000.5,-0.08,-0.21,0.90,-0.00,0.02,0.01,6.33,9.64,15.03,
55000.6,-0.08,-0.20,0.90,-0.01,0.02,0.01,7.19,9.64,14.01,
55000.7,-0.08,-0.20,0.90,-0.01,0.01,0.01,7.81,8.73,15.90,
55000.8,-0.08,-0.20,0.91,-0.01,0.02,0.01,6.70,9.79,15.12,
55000.9,-0.06,-0.20,0.91,-0.02,0.01,0.01,7.47,10.78,14.90,
55001.0,-0.02,-0.19,1.00,-0.08,0.49,0.09,8.29,11.62,15.75,
55001.1,-0.14,-0.17,1.01,0.05,0.35,-0.01,10.10,10.13,16.01,
55001.2,0.04,-0.14,1.23,0.71,-0.40,-0.12,8.83,9.75,15.90,
55001.3,-0.10,-0.12,1.14,1.20,-0.06,-0.18,9.00,7.66,15.33,
55001.4,-0.12,0.00,1.01,1.53,-0.14,-0.19,7.17,5.40,16.34,
55001.5,-0.23,0.15,0.83,1.41,-0.29,0.00,4.39,-0.51,15.23,
55001.6,-0.18,0.24,0.60,1.15,-0.84,0.15,2.16,-2.74,13.06,
55001.7,-0.02,0.31,0.59,0.26,-0.67,0.57,-0.40,-6.58,14.17,
55001.8,0.14,0.31,0.50,-0.41,-0.21,0.51,-5.02,-6.50,13.73,
55001.9,0.19,0.20,0.71,-0.59,-0.38,0.32,-4.51,-4.62,14.90,
55002.0,0.34,0.23,0.82,-0.21,-0.16,-0.02,-5.36,-3.99,15.74,
55002.1,0.15,0.45,1.10,-0.14,0.83,0.01,-6.27,-3.80,17.20,
55002.2,0.21,0.29,0.76,0.36,-0.23,0.03,-2.97,-4.28,16.20,
55002.3,0.21,0.31,0.81,-0.09,2.21,-0.29,-4.34,-5.82,15.07,
55002.4,-0.11,0.50,0.94,-0.01,3.16,-0.48,3.19,-6.50,18.75,
55002.5,-0.46,0.64,0.66,1.47,4.53,-0.69,14.18,-7.28,22.87,
55002.6,-0.69,0.36,0.67,1.03,0.70,-0.60,27.16,-9.63,33.85,
55002.7,-0.70,0.40,0.53,-0.09,-0.05,0.33,26.91,-9.70,33.56,
55002.8,-0.68,0.41,0.55,-0.04,-0.21,0.11,26.71,-11.03,34.25,
55002.9,-0.70,0.40,0.59,-0.06,-0.12,0.02,27.14,-11.63,34.17,
55003.0,-0.63,0.39,0.62,-0.45,-0.67,0.27,25.13,-11.96,32.87,
55003.1,-0.59,0.41,0.67,-0.71,-1.16,0.39,24.19,-10.43,29.68,
55003.2,-0.49,0.32,0.74,-0.75,-1.14,0.32,21.67,-9.24,27.13,
55003.3,-0.39,0.27,0.93,-0.18,-1.86,0.25,17.51,-7.71,24.50,
55003.4,-0.17,0.33,0.87,-0.18,-2.63,0.50,10.37,-6.16,19.42,
55003.5,0.11,0.16,0.67,-0.57,-1.86,0.63,2.61,-3.84,16.77,
55003.6,0.24,0.21,0.68,-0.03,-0.53,0.12,-5.34,-2.10,17.03,
55003.7,0.26,0.18,0.80,0.01,0.16,0.05,-6.22,-1.88,16.24,
55003.8,0.37,0.24,1.03,0.27,-0.13,-0.23,-7.38,-1.71,18.89,
55003.9,0.07,0.14,0.77,0.44,0.51,0.06,-7.36,-1.50,16.71,
55004.0,0.14,0.12,0.66,0.95,-0.03,0.12,-5.22,-5.00,16.90,
55004.1,0.31,0.24,0.76,0.26,0.92,-0.40,-7.24,-9.57,14.32,
55004.2,-0.04,0.38,0.48,-0.94,0.95,-0.26,-2.63,-11.97,14.40,
55004.3,0.13,0.32,0.77,-1.76,0.01,-0.23,-0.58,-9.24,12.72,
55004.4,0.02,0.15,1.12,-1.96,-0.03,-0.16,-1.07,-4.86,12.48,
55004.5,0.06,-0.06,1.22,-1.34,0.77,0.32,0.45,4.79,13.06,
55004.6,0.07,-0.12,1.12,-0.60,0.61,0.03,3.30,8.67,13.91,
55004.7,0.10,-0.21,1.09,-0.05,0.19,-0.14,4.71,9.85,13.32,
55004.8,-0.07,-0.19,0.80,-0.06,0.17,0.01,4.56,8.90,13.06,
55004.9,-0.11,-0.20,0.91,0.07,0.23,-0.04,6.28,9.94,13.73,
55005.0,-0.08,-0.19,0.92,0.02,0.06,0.06,5.92,8.90,15.07,
55005.1,-0.05,-0.19,0.91,-0.02,0.06,0.07,6.10,10.44,13.89,
55005.2,-0.07,-0.18,0.90,0.02,-0.04,0.01,6.92,10.64,14.51,
55005.3,-0.10,-0.20,0.88,0.02,0.16,-0.01,5.92,9.93,14.40,
55005.4,-0.09,-0.23,0.91,0.01,0.01,0.03,6.44,10.10,13.22,
55005.5,-0.12,-0.19,0.89,0.00,0.09,0.03,6.91,10.43,13.87,
55005.6,-0.07,-0.16,0.91,0.04,-0.01,0.02,7.81,8.39,12.55,
55005.7,-0.10,-0.16,0.92,-0.04,0.07,0.02,6.89,9.05,14.55,
55005.8,-0.09,-0.16,0.89,-0.07,-0.06,0.04,7.29,7.60,14.69,
55005.9,-0.09,-0.19,0.90,-0.04,0.06,0.02,7.12,8.73,14.23,
55006.0,-0.09,-0.20,0.92,-0.08,0.04,0.05,6.87,9.33,15.15,
55006.1,-0.09,-0.22,0.89,-0.07,0.02,-0.00,6.95,11.29,15.40,
55006.2,-0.08,-0.20,0.90,-0.00,-0.04,-0.01,7.64,10.95,14.06,
55006.3,-0.14,-0.21,0.90,0.02,0.13,0.02,7.81,9.07,15.23,
55006.4,-0.10,-0.20,0.91,0.07,0.04,0.02,7.47,10.10,14.56,
55006.5,-0.11,-0.18,0.90,0.09,0.02,-0.01,9.44,8.85,15.35,
55006.6,-0.11,-0.19,0.91,-0.01,-0.02,-0.00,8.49,8.73,14.90,
55006.7,-0.11,-0.18,0.91,-0.04,0.06,-0.00,8.32,10.27,14.73,
55006.8,-0.12,-0.22,0.90,-0.05,-0.09,-0.02,8.49,9.75,14.56,
55006.9,-0.10,-0.16,0.90,-0.03,-0.03,-0.02,6.95,11.64,13.73,
55007.0,-0.09,-0.20,0.90,0.06,-0.02,-0.01,7.16,9.70,14.53,
55007.1,-0.12,-0.22,0.90,0.09,0.06,0.07,7.36,9.87,14.00,
55007.2,-0.11,-0.18,0.92,0.01,-0.04,0.08,7.98,9.24,13.39,
55007.3,-0.13,-0.17,0.90,0.05,0.02,0.01,10.03,9.93,13.39,
55007.4,-0.12,-0.15,0.90,0.03,0.05,0.01,9.01,9.58,15.40,
55007.5,-0.11,-0.17,0.90,-0.00,0.02,0.02,8.83,9.07,13.89,
55007.6,-0.14,-0.16,0.90,-0.02,-0.00,0.05,8.91,7.62,14.38,
55007.7,-0.11,-0.17,0.91,-0.01,-0.06,0.03,10.03,7.53,15.07,
55007.8,-0.11,-0.16,0.91,-0.01,-0.01,0.02,9.69,7.87,13.39,
55007.9,-0.11,-0.17,0.90,-0.01,0.05,-0.01,8.27,7.95,14.06,
55008.0,-0.14,-0.17,0.90,0.00,0.07,0.03,10.20,8.04,14.23,
55008.1,-0.13,-0.15,0.91,-0.06,-0.03,0.03,8.81,9.16,13.92,
55008.2,-0.12,-0.17,0.90,-0.06,0.03,0.03,11.40,9.24,13.73,
55008.3,-0.13,-0.18,0.91,-0.02,-0.07,-0.02,9.35,8.56,15.40,
55008.4,-0.12,-0.19,0.90,-0.00,0.02,0.00,9.34,9.12,13.96,
55008.5,-0.12,-0.16,0.91,0.01,-0.03,-0.02,7.81,8.04,15.90,
55008.6,-0.12,-0.18,0.91,-0.03,0.02,0.02,8.49,8.39,15.23,
55008.7,-0.13,-0.17,0.90,0.00,0.02,0.01,8.66,7.87,15.40,
55008.8,-0.12,-0.16,0.91,0.03,-0.07,-0.02,8.49,8.39,14.90,
55008.9,-0.12,-0.18,0.88,-0.01,0.04,0.04,8.27,8.30,14.11,
55009.0,-0.13,-0.18,0.90,-0.01,0.05,-0.01,7.88,8.70,13.86,
55009.1,-0.09,-0.16,0.91,0.00,-0.07,-0.03,9.69,8.90,14.40,
55009.2,-0.11,-0.17,0.91,-0.01,0.02,0.00,9.18,7.70,14.90,
55009.3,-0.12,-0.16,0.91,-0.01,0.00,-0.00,9.18,8.39,14.23,
55009.4,-0.08,-0.14,0.94,-0.06,-0.01,0.08,8.15,9.41,13.22,
55009.5,-0.12,-0.12,0.90,0.00,-0.12,-0.17,9.36,8.68,15.01,
55009.6,-0.08,-0.17,0.92,-0.00,-0.17,0.00,8.15,9.41,14.56,
55009.7,-0.10,-0.12,0.97,0.02,0.32,-0.01,7.12,8.05,16.87,
55009.8,-0.13,-0.14,0.98,0.25,0.06,0.07,8.14,7.85,13.31,
55009.9,-0.01,-0.08,1.13,0.66,-0.11,0.04,8.32,6.50,16.41,
55010.0,-0.04,0.01,1.20,1.20,-0.18,-0.02,8.89,5.72,14.52,
55010.1,-0.14,0.08,0.92,1.49,0.09,-0.15,6.44,0.52,14.56,
55010.2,-0.12,0.16,0.86,1.42,-0.44,-0.17,7.64,-3.08,14.40,
55010.3,-0.14,0.31,0.77,1.18,-0.37,0.17,3.36,-7.35,14.52,
55010.4,-0.07,0.44,0.58,0.81,-0.51,0.33,1.14,-9.58,13.06,
55010.5,0.06,0.49,0.53,0.06,-1.30,0.61,-0.22,-12.16,13.09,
55010.6,0.28,0.38,0.67,-0.56,-0.08,0.42,-7.25,-12.83,14.23,
55010.7,0.21,0.51,0.59,-0.04,-0.86,0.11,-7.76,-10.26,15.07,
55010.8,0.37,0.31,0.68,-0.67,0.56,0.07,-8.18,-8.90,15.20,
55010.9,0.02,0.40,0.90,-0.24,0.64,-0.32,-6.05,-7.18,15.40,
55011.0,0.12,0.25,0.71,0.26,0.26,-0.08,-3.83,-5.99,15.57,
55011.1,0.19,0.42,0.83,0.08,0.70,-0.37,-2.67,-8.20,15.09,
55011.2,-0.07,0.34,0.54,-0.09,2.50,-0.56,0.79,-8.21,16.74,
55011.3,-0.42,0.38,0.63,-0.27,3.48,-0.52,9.69,-11.29,19.09,
55011.4,-0.57,0.37,0.84,0.94,0.37,-0.22,20.99,-10.46,26.91,
55011.5,-0.51,0.45,0.73,0.05,0.29,0.15,23.21,-10.43,28.97,
55011.6,-0.58,0.42,0.65,-0.09,-0.16,0.10,22.95,-10.52,30.60,
55011.7,-0.57,0.43,0.67,-0.11,-0.24,0.10,22.69,-12.32,28.47,
55011.8,-0.55,0.41,0.69,-0.25,-0.25,0.12,23.03,-13.00,28.81,
55011.9,-0.48,0.39,0.75,-0.49,-0.62,0.34,21.90,-11.26,28.23,
55012.0,-0.46,0.33,0.91,-0.51,-1.55,0.51,20.42,-10.56,26.75,
55012.1,-0.18,0.40,0.81,0.00,-1.76,0.41,15.85,-9.92,22.10,
55012.2,-0.10,0.37,0.83,-0.39,-1.57,0.55,9.18,-9.59,19.41,
55012.3,0.10,0.34,0.91,-0.31,-1.90,0.54,1.99,-7.70,16.57,
55012.4,0.22,0.19,0.79,-0.61,-0.01,0.10,-5.64,-5.54,16.00,
55012.5,0.24,0.17,0.68,-0.15,-0.12,-0.23,-4.34,-4.34,16.28,
55012.6,0.12,0.09,1.00,0.31,0.57,0.02,-5.54,-2.91,17.58,
55012.7,-0.17,0.12,0.74,0.65,0.51,0.55,-2.84,-4.73,16.20,
55012.8,0.26,0.44,0.62,0.38,-0.80,0.49,-6.39,-9.24,14.73,
55012.9,0.28,0.40,0.62,-0.65,1.45,-0.06,-7.34,-11.12,14.76,
55013.0,0.33,0.25,0.62,-1.51,0.81,-0.21,-3.03,-9.86,12.76,
55013.1,0.14,0.12,1.10,-1.96,0.63,-0.54,-0.23,-3.76,12.72,
55013.2,-0.01,-0.15,1.33,-1.04,0.83,-0.32,3.28,2.53,13.64,
55013.3,0.00,-0.10,1.15,-0.15,0.15,0.09,6.78,7.36,14.23,
55013.4,-0.12,-0.18,0.83,-0.06,0.36,0.12,6.75,7.75,13.69,
55013.5,-0.07,-0.17,0.96,-0.02,-0.02,0.01,8.31,6.97,14.64,
55013.6,-0.11,-0.16,0.89,-0.01,0.44,0.03,8.66,7.19,13.73,
55013.7,-0.13,-0.16,0.92,-0.01,0.17,0.10,10.46,5.90,14.81,
55013.8,-0.15,-0.18,0.93,0.02,0.03,0.01,10.97,5.79,16.44,
55013.9,-0.16,-0.18,0.89,0.07,0.03,0.02,11.35,7.11,15.93,
55014.0,-0.20,-0.15,0.88,0.02,-0.04,0.03,12.66,6.01,15.62,
55014.1,-0.16,-0.16,0.92,0.03,0.07,0.00,12.77,5.13,15.40,
55014.2,-0.16,-0.14,0.91,0.01,0.00,0.02,10.37,6.50,15.74,
55014.3,-0.17,-0.14,0.90,0.02,0.03,0.01,12.38,5.72,15.55,
55014.4,-0.18,-0.15,0.91,0.01,0.01,0.02,11.78,5.15,15.39,
55014.5,-0.17,-0.13,0.90,-0.01,-0.04,0.00,12.19,6.61,15.07,
55014.6,-0.17,-0.15,0.90,-0.01,0.02,0.01,11.76,6.18,15.08,
55014.7,-0.18,-0.14,0.90,-0.02,-0.01,0.07,11.06,5.13,14.40,
55014.8,-0.18,-0.14,0.90,-0.01,-0.00,0.01,11.62,5.00,14.02,
55014.9,-0.17,-0.14,0.89,-0.01,-0.09,-0.02,11.74,6.44,15.07,
55015.0,-0.16,-0.15,0.92,-0.01,0.03,0.03,11.57,5.99,15.57,
55015.1,-0.17,-0.14,0.90,-0.01,0.04,0.02,12.26,6.33,13.89,
55015.2,-0.16,-0.15,0.90,-0.01,0.00,0.00,12.60,5.99,14.56,
55015.3,-0.16,-0.15,0.90,0.00,0.04,0.01,12.39,5.20,16.04,
55015.4,-0.16,-0.14,0.90,-0.01,0.02,0.02,12.75,5.00,16.01,
55015.5,-0.17,-0.14,0.90,-0.02,0.07,-0.01,11.74,6.16,14.40,
55015.6,-0.18,-0.14,0.88,-0.00,-0.06,0.06,12.08,7.19,15.07,
55015.7,-0.15,-0.13,0.90,0.02,0.10,0.06,12.94,5.31,15.90,
55015.8,-0.20,-0.15,0.89,-0.01,0.04,0.04,12.75,5.75,15.42,
55015.9,-0.18,-0.14,0.90,0.01,0.08,0.03,13.24,4.77,14.37,
55016.0,-0.21,-0.13,0.89,0.03,0.10,0.03,12.60,6.33,14.23,
55016.1,-0.20,-0.12,0.89,0.03,0.11,0.05,13.56,5.18,14.96,
55016.2,-0.22,-0.14,0.90,0.02,0.11,0.05,13.10,4.32,15.83,
55016.3,-0.25,-0.14,0.88,0.02,0.21,-0.01,13.80,5.11,16.38,
55016.4,-0.25,-0.13,0.89,0.02,0.02,0.06,15.74,4.16,15.96,
55016.5,-0.23,-0.12,0.89,0.01,0.12,0.03,14.99,4.45,16.74,
55016.6,-0.23,-0.10,0.90,-0.00,0.02,0.05,14.14,3.42,16.74,
55016.7,-0.26,-0.12,0.89,-0.00,0.08,0.04,15.54,2.32,16.46,
55016.8,-0.26,-0.12,0.90,0.01,0.03,0.04,16.85,4.11,16.41,
55016.9,-0.23,-0.11,0.89,-0.01,0.02,0.03,15.85,3.77,16.07,
55017.0,-0.25,-0.12,0.89,-0.01,0.03,0.00,16.21,3.73,16.07,
55017.1,-0.26,-0.11,0.88,0.01,0.02,0.01,15.51,2.74,16.74,
55017.2,-0.27,-0.11,0.88,0.01,0.05,0.02,16.99,4.22,15.22,
55017.3,-0.27,-0.11,0.89,-0.03,0.14,-0.05,16.04,4.89,15.01,
