Time,aclx,acly,aclz,gyrx,gyry,gyrz,magr,magphi,magtheta,Is Positive Peak?
54914.900000,0.030710,,,,,,,,,0
54916.300000,0.076625,,,,,,,,,1
54918.200000,-0.030196,,,,,,,,,0
54919.300000,-0.022658,,,,,,,,,1
54920.900000,-0.029302,,,,,,,,,1
54921.700000,-0.030653,,,,,,,,,0
54922.200000,-0.029264,,,,,,,,,1
54922.800000,-0.030486,,,,,,,,,0
54925.800000,0.082294,,,,,,,,,1
54927.100000,-0.043725,,,,,,,,,0
54928.200000,0.075661,,,,,,,,,1
54930.100000,-0.022222,,,,,,,,,0
54930.200000,-0.021543,,,,,,,,,1
54930.900000,-0.021450,,,,,,,,,1
54931.400000,-0.021448,,,,,,,,,1
54932.300000,-0.026084,,,,,,,,,0
54932.800000,-0.024150,,,,,,,,,1
54933.600000,-0.025920,,,,,,,,,0
54934.900000,0.044357,,,,,,,,,1
54935.800000,-0.049683,,,,,,,,,0
54936.900000,0.071441,,,,,,,,,1
54939.100000,-0.028127,,,,,,,,,0
54940.500000,-0.025312,,,,,,,,,0
54942.100000,0.060930,,,,,,,,,1
54942.900000,-0.043222,,,,,,,,,0
54943.900000,0.066339,,,,,,,,,1
54945.100000,-0.015073,,,,,,,,,0
54946.700000,-0.017822,,,,,,,,,0
54947.200000,-0.015528,,,,,,,,,1
54948.200000,-0.019168,,,,,,,,,0
54948.600000,-0.018061,,,,,,,,,1
54950.000000,-0.021151,,,,,,,,,0
54951.300000,0.041509,,,,,,,,,1
54952.100000,-0.040045,,,,,,,,,0
54953.200000,0.082335,,,,,,,,,1
54954.700000,-0.006491,,,,,,,,,0
54954.900000,-0.005473,,,,,,,,,1
54955.700000,-0.007678,,,,,,,,,0
54955.800000,-0.006657,,,,,,,,,1
54956.900000,-0.011904,,,,,,,,,0
54957.500000,-0.009346,,,,,,,,,1
54958.900000,-0.016714,,,,,,,,,0
54959.500000,-0.016742,,,,,,,,,0
54960.900000,0.060294,,,,,,,,,1
54961.700000,-0.044035,,,,,,,,,0
54962.800000,0.084325,,,,,,,,,1
54965.300000,-0.007595,,,,,,,,,1
54966.100000,-0.010139,,,,,,,,,0
54967.100000,-0.007670,,,,,,,,,1
54967.900000,-0.008694,,,,,,,,,0
54968.500000,-0.007254,,,,,,,,,1
54968.900000,-0.007941,,,,,,,,,0
54970.500000,0.068777,,,,,,,,,1
54971.400000,-0.050009,,,,,,,,,0
54972.600000,0.091179,,,,,,,,,1
54975.400000,-0.007443,,,,,,,,,0
54976.100000,-0.006309,,,,,,,,,1
54976.500000,-0.008553,,,,,,,,,0
54978.300000,0.047932,,,,,,,,,1
54979.100000,-0.048348,,,,,,,,,0
54980.100000,0.067141,,,,,,,,,1
54981.400000,-0.017888,,,,,,,,,0
54981.900000,-0.014075,,,,,,,,,1
54983.300000,-0.018303,,,,,,,,,0
54983.700000,-0.017102,,,,,,,,,1
54984.500000,-0.020816,,,,,,,,,0
54984.800000,-0.019081,,,,,,,,,1
54985.200000,-0.020867,,,,,,,,,0
54985.900000,0.037923,,,,,,,,,1
54986.700000,-0.065278,,,,,,,,,0
54987.800000,0.095939,,,,,,,,,1
54990.100000,-0.009546,,,,,,,,,0
54990.400000,-0.008808,,,,,,,,,1
54991.600000,-0.013027,,,,,,,,,0
54992.700000,-0.011817,,,,,,,,,0
54993.700000,0.065060,,,,,,,,,1
54994.500000,-0.062896,,,,,,,,,0
54995.500000,0.068435,,,,,,,,,1
54996.800000,0.002377,,,,,,,,,0
54997.300000,0.005203,,,,,,,,,1
54998.500000,-0.004701,,,,,,,,,0
54999.100000,-0.003287,,,,,,,,,1
54999.900000,-0.006193,,,,,,,,,0
55000.200000,-0.005144,,,,,,,,,1
55000.700000,-0.004720,,,,,,,,,1
55001.200000,-0.008173,,,,,,,,,0
55002.100000,0.048849,,,,,,,,,1
55002.900000,-0.059940,,,,,,,,,0
55004.000000,0.058227,,,,,,,,,1
55008.000000,-0.018276,,,,,,,,,0
55008.900000,-0.014216,,,,,,,,,1
55010.900000,0.051924,,,,,,,,,1
55011.700000,-0.050821,,,,,,,,,0
55012.800000,0.055020,,,,,,,,,1
55014.900000,-0.028154,,,,,,,,,0
55015.300000,-0.027889,,,,,,,,,1
55017.200000,-0.040481,,,,,,,,,0
54914.700000,,0.051514,,,,,,,,1
54917.000000,,-0.040690,,,,,,,,0
54918.100000,,-0.011004,,,,,,,,1
54919.300000,,-0.014660,,,,,,,,0
54920.400000,,-0.010594,,,,,,,,1
54922.100000,,-0.013307,,,,,,,,0
54923.100000,,-0.011486,,,,,,,,1
54923.900000,,-0.013569,,,,,,,,0
54925.200000,,0.054679,,,,,,,,1
54925.900000,,0.038874,,,,,,,,0
54926.900000,,0.051739,,,,,,,,1
54927.500000,,0.047802,,,,,,,,1
54929.300000,,-0.024422,,,,,,,,0
54930.200000,,-0.023024,,,,,,,,1
54930.900000,,-0.023485,,,,,,,,0
54932.400000,,-0.020151,,,,,,,,1
54933.000000,,-0.021136,,,,,,,,0
54934.900000,,0.050340,,,,,,,,1
54935.300000,,0.038718,,,,,,,,0
54935.800000,,0.039566,,,,,,,,0
54936.100000,,0.041930,,,,,,,,1
54936.500000,,0.034714,,,,,,,,0
54936.800000,,0.038957,,,,,,,,1
54938.000000,,-0.023563,,,,,,,,0
54938.500000,,-0.022031,,,,,,,,1
54939.100000,,-0.022902,,,,,,,,0
54939.800000,,-0.022146,,,,,,,,1
54940.600000,,-0.024062,,,,,,,,0
54941.800000,,0.051162,,,,,,,,1
54942.700000,,0.044100,,,,,,,,1
54943.600000,,0.032516,,,,,,,,0
54944.100000,,0.041683,,,,,,,,1
54945.600000,,-0.024501,,,,,,,,0
54946.400000,,-0.022103,,,,,,,,1
54946.700000,,-0.022940,,,,,,,,0
54947.000000,,-0.022267,,,,,,,,1
54947.300000,,-0.022773,,,,,,,,0
54948.000000,,-0.020000,,,,,,,,1
54948.700000,,-0.021672,,,,,,,,0
54949.900000,,-0.021064,,,,,,,,0
54951.300000,,0.042524,,,,,,,,1
54952.900000,,0.026748,,,,,,,,0
54953.300000,,0.040027,,,,,,,,1
54955.000000,,-0.034094,,,,,,,,0
54956.700000,,-0.030648,,,,,,,,1
54957.400000,,-0.031627,,,,,,,,0
54958.600000,,-0.028774,,,,,,,,1
54959.000000,,-0.029359,,,,,,,,0
54959.700000,,-0.029620,,,,,,,,0
54961.600000,,0.052932,,,,,,,,1
54962.600000,,0.032742,,,,,,,,0
54963.100000,,0.040060,,,,,,,,1
54964.600000,,-0.037598,,,,,,,,0
54964.800000,,-0.037135,,,,,,,,1
54965.200000,,-0.037501,,,,,,,,0
54966.400000,,-0.036191,,,,,,,,1
54967.200000,,-0.038092,,,,,,,,0
54967.800000,,-0.038255,,,,,,,,0
54968.400000,,-0.037588,,,,,,,,1
54969.200000,,-0.038773,,,,,,,,0
54971.700000,,0.053276,,,,,,,,1
54972.700000,,0.044049,,,,,,,,1
54974.000000,,-0.040983,,,,,,,,0
54979.200000,,0.049538,,,,,,,,1
54979.800000,,0.035803,,,,,,,,0
54980.300000,,0.046819,,,,,,,,1
54981.400000,,-0.024286,,,,,,,,0
54982.000000,,-0.022577,,,,,,,,1
54982.400000,,-0.023132,,,,,,,,0
54983.300000,,-0.021614,,,,,,,,1
54983.500000,,-0.022293,,,,,,,,0
54984.100000,,-0.022392,,,,,,,,0
54986.800000,,0.051115,,,,,,,,1
54987.500000,,0.026697,,,,,,,,0
54988.000000,,0.033822,,,,,,,,1
54988.900000,,-0.026394,,,,,,,,0
54990.700000,,-0.014142,,,,,,,,1
54991.300000,,-0.015557,,,,,,,,0
54991.900000,,-0.014053,,,,,,,,1
54992.200000,,-0.014771,,,,,,,,0
54994.400000,,0.049570,,,,,,,,1
54995.400000,,0.032879,,,,,,,,0
54995.700000,,0.041649,,,,,,,,1
54997.200000,,-0.033150,,,,,,,,0
54998.600000,,-0.028395,,,,,,,,1
54999.100000,,-0.028312,,,,,,,,1
55000.100000,,-0.029277,,,,,,,,0
55002.800000,,0.049791,,,,,,,,1
55003.700000,,0.031647,,,,,,,,0
55004.100000,,0.040407,,,,,,,,1
55005.100000,,-0.029951,,,,,,,,0
55006.000000,,-0.026635,,,,,,,,1
55006.700000,,-0.027359,,,,,,,,1
55007.000000,,-0.027997,,,,,,,,0
55008.000000,,-0.022073,,,,,,,,1
55008.800000,,-0.023092,,,,,,,,0
55008.900000,,-0.022447,,,,,,,,1
55009.300000,,-0.023216,,,,,,,,0
55010.800000,,0.060155,,,,,,,,1
55012.400000,,0.041194,,,,,,,,0
55012.700000,,0.044802,,,,,,,,1
55013.700000,,-0.017872,,,,,,,,0
55014.500000,,-0.012929,,,,,,,,1
55014.900000,,-0.013708,,,,,,,,0
55015.100000,,-0.012820,,,,,,,,1
55017.000000,,-0.003801,,,,,,,,1
54914.700000,,,0.143628,,,,,,,0
54915.400000,,,0.146913,,,,,,,1
54918.000000,,,0.001473,,,,,,,0
54918.700000,,,0.008129,,,,,,,1
54919.500000,,,0.003774,,,,,,,0
54920.700000,,,0.011560,,,,,,,1
54921.000000,,,0.010012,,,,,,,0
54921.300000,,,0.012689,,,,,,,1
54922.500000,,,0.009217,,,,,,,1
54922.700000,,,0.007994,,,,,,,0
54923.200000,,,0.007710,,,,,,,0
54924.300000,,,0.028384,,,,,,,1
54925.100000,,,-0.046680,,,,,,,0
54925.900000,,,-0.022450,,,,,,,1
54926.600000,,,-0.042093,,,,,,,0
54927.700000,,,-0.014641,,,,,,,1
54928.200000,,,-0.038596,,,,,,,0
54929.100000,,,0.039723,,,,,,,1
54929.400000,,,0.013973,,,,,,,0
54930.200000,,,0.014857,,,,,,,0
54930.500000,,,0.016626,,,,,,,1
54931.200000,,,0.012695,,,,,,,0
54932.000000,,,0.017467,,,,,,,1
54933.100000,,,0.014347,,,,,,,0
54933.900000,,,0.037623,,,,,,,1
54935.000000,,,-0.050546,,,,,,,0
54935.500000,,,-0.055365,,,,,,,0
54936.000000,,,-0.014498,,,,,,,1
54936.800000,,,-0.050138,,,,,,,0
54937.800000,,,0.045871,,,,,,,1
54938.300000,,,0.015615,,,,,,,0
54938.900000,,,0.016721,,,,,,,0
54939.100000,,,0.020416,,,,,,,1
54940.300000,,,0.013242,,,,,,,0
54940.900000,,,0.033019,,,,,,,1
54941.800000,,,-0.048504,,,,,,,0
54942.300000,,,-0.036117,,,,,,,1
54943.000000,,,-0.017498,,,,,,,1
54943.900000,,,-0.039416,,,,,,,0
54944.900000,,,0.035617,,,,,,,1
54945.900000,,,0.012083,,,,,,,0
54946.500000,,,0.013040,,,,,,,0
54946.700000,,,0.015651,,,,,,,1
54947.500000,,,0.010422,,,,,,,0
54948.700000,,,0.015732,,,,,,,1
54949.200000,,,0.012262,,,,,,,0
54949.300000,,,0.014511,,,,,,,1
54950.300000,,,0.034215,,,,,,,1
54951.300000,,,-0.071055,,,,,,,0
54952.100000,,,0.024325,,,,,,,1
54953.100000,,,-0.052534,,,,,,,0
54954.200000,,,0.018682,,,,,,,1
54954.400000,,,0.011600,,,,,,,0
54955.100000,,,0.015790,,,,,,,1
54956.100000,,,0.009254,,,,,,,0
54957.000000,,,0.014217,,,,,,,1
54957.800000,,,0.013860,,,,,,,1
54958.200000,,,0.011742,,,,,,,0
54959.000000,,,0.014810,,,,,,,1
54959.400000,,,0.013508,,,,,,,0
54960.000000,,,0.031335,,,,,,,1
54961.000000,,,-0.074626,,,,,,,0
54961.900000,,,-0.002883,,,,,,,1
54962.800000,,,-0.050490,,,,,,,0
54964.000000,,,0.021495,,,,,,,1
54964.900000,,,0.010914,,,,,,,1
54965.600000,,,0.008776,,,,,,,0
54966.100000,,,0.011576,,,,,,,1
54967.000000,,,0.008064,,,,,,,0
54967.800000,,,0.012474,,,,,,,1
54968.500000,,,0.007859,,,,,,,0
54969.400000,,,0.031910,,,,,,,1
54970.300000,,,-0.053069,,,,,,,0
54970.900000,,,-0.008487,,,,,,,1
54971.400000,,,-0.010167,,,,,,,1
54971.500000,,,-0.031607,,,,,,,0
54972.800000,,,-0.042403,,,,,,,0
54973.600000,,,0.022480,,,,,,,1
54975.200000,,,0.006323,,,,,,,0
54976.900000,,,0.016542,,,,,,,0
54977.300000,,,0.029486,,,,,,,1
54978.200000,,,-0.056347,,,,,,,0
54979.200000,,,-0.017988,,,,,,,1
54980.100000,,,-0.047647,,,,,,,0
54981.100000,,,0.020963,,,,,,,1
54981.400000,,,0.004405,,,,,,,0
54982.300000,,,0.008620,,,,,,,1
54982.700000,,,0.007702,,,,,,,0
54983.500000,,,0.011257,,,,,,,1
54983.800000,,,0.009161,,,,,,,0
54985.000000,,,0.032922,,,,,,,1
54985.900000,,,-0.070351,,,,,,,0
54986.200000,,,-0.021577,,,,,,,1
54986.700000,,,-0.016510,,,,,,,1
54987.000000,,,-0.053003,,,,,,,0
54987.400000,,,-0.030580,,,,,,,1
54987.700000,,,-0.046618,,,,,,,0
54988.600000,,,0.018027,,,,,,,1
54989.300000,,,-0.003483,,,,,,,0
54990.100000,,,0.001481,,,,,,,1
54990.900000,,,-0.000713,,,,,,,0
54991.600000,,,0.003204,,,,,,,1
54992.000000,,,0.000666,,,,,,,0
54992.600000,,,0.027171,,,,,,,1
54993.600000,,,-0.049150,,,,,,,0
54994.400000,,,-0.075474,,,,,,,0
54995.300000,,,-0.026129,,,,,,,1
54995.500000,,,-0.047000,,,,,,,0
54996.400000,,,0.030852,,,,,,,1
54997.300000,,,0.007883,,,,,,,0
54998.100000,,,0.009928,,,,,,,1
54999.100000,,,0.004807,,,,,,,0
54999.800000,,,0.009290,,,,,,,1
55000.600000,,,0.005162,,,,,,,0
55001.100000,,,0.030806,,,,,,,1
55001.900000,,,-0.058354,,,,,,,0
55002.300000,,,-0.035290,,,,,,,1
55002.900000,,,-0.056045,,,,,,,0
55003.500000,,,-0.033211,,,,,,,1
55003.900000,,,-0.051779,,,,,,,0
55004.800000,,,0.022675,,,,,,,1
55005.200000,,,0.005060,,,,,,,0
55006.200000,,,0.006510,,,,,,,0
55007.100000,,,0.014066,,,,,,,1
55007.800000,,,0.011009,,,,,,,0
55008.100000,,,0.013607,,,,,,,1
55008.900000,,,0.005754,,,,,,,0
55009.700000,,,0.026305,,,,,,,1
55010.900000,,,-0.048081,,,,,,,0
55011.200000,,,-0.040486,,,,,,,1
55012.300000,,,-0.021374,,,,,,,1
55012.700000,,,-0.043625,,,,,,,0
55013.500000,,,0.020554,,,,,,,1
55013.800000,,,0.006031,,,,,,,0
55014.900000,,,0.012668,,,,,,,1
55015.600000,,,0.011919,,,,,,,0
55017.200000,,,0.018205,,,,,,,1
54914.700000,,,,-0.003433,,,,,,1
54915.700000,,,,-0.025231,,,,,,0
54916.500000,,,,-0.002881,,,,,,1
54917.200000,,,,-0.011848,,,,,,0
54918.000000,,,,0.008294,,,,,,1
54918.800000,,,,-0.002605,,,,,,0
54921.300000,,,,-0.001639,,,,,,0
54922.100000,,,,0.001258,,,,,,1
54923.500000,,,,-0.000536,,,,,,1
54923.700000,,,,-0.001225,,,,,,0
54924.700000,,,,0.092589,,,,,,1
54925.500000,,,,-0.021644,,,,,,0
54926.400000,,,,0.023194,,,,,,1
54927.200000,,,,-0.016953,,,,,,0
54928.000000,,,,0.007742,,,,,,1
54928.700000,,,,-0.077519,,,,,,0
54929.500000,,,,0.001396,,,,,,1
54930.700000,,,,-0.000398,,,,,,0
54931.500000,,,,0.001948,,,,,,1
54933.600000,,,,0.000016,,,,,,0
54934.200000,,,,0.090382,,,,,,1
54935.000000,,,,-0.035578,,,,,,0
54935.500000,,,,0.006225,,,,,,1
54936.200000,,,,-0.019160,,,,,,0
54936.600000,,,,0.017538,,,,,,1
54937.400000,,,,-0.077657,,,,,,0
54937.900000,,,,0.001948,,,,,,1
54938.500000,,,,-0.000260,,,,,,1
54938.700000,,,,-0.001225,,,,,,0
54939.600000,,,,0.000292,,,,,,1
54939.900000,,,,-0.000673,,,,,,0
54941.200000,,,,0.096314,,,,,,1
54942.000000,,,,-0.021506,,,,,,0
54942.300000,,,,0.019883,,,,,,1
54943.300000,,,,-0.025093,,,,,,0
54943.700000,,,,0.018227,,,,,,1
54944.500000,,,,-0.082899,,,,,,0
54949.800000,,,,-0.000398,,,,,,0
54950.700000,,,,0.075482,,,,,,1
54951.400000,,,,-0.029094,,,,,,0
54951.900000,,,,-0.003019,,,,,,1
54952.600000,,,,-0.018333,,,,,,0
54953.000000,,,,0.033265,,,,,,1
54953.800000,,,,-0.086762,,,,,,0
54955.500000,,,,0.001948,,,,,,1
54956.900000,,,,-0.002053,,,,,,0
54958.100000,,,,0.002086,,,,,,1
54959.100000,,,,-0.000398,,,,,,0
54960.300000,,,,0.087761,,,,,,1
54961.000000,,,,0.004155,,,,,,0
54961.400000,,,,0.020159,,,,,,1
54962.100000,,,,-0.042062,,,,,,0
54962.800000,,,,0.013537,,,,,,1
54963.500000,,,,-0.093246,,,,,,0
54965.200000,,,,0.000568,,,,,,1
54966.200000,,,,-0.000398,,,,,,0
54966.700000,,,,0.000982,,,,,,1
54967.700000,,,,0.000292,,,,,,1
54968.800000,,,,-0.000673,,,,,,0
54969.800000,,,,0.099211,,,,,,1
54970.600000,,,,-0.005364,,,,,,0
54971.000000,,,,0.040853,,,,,,1
54971.900000,,,,-0.038337,,,,,,0
54972.400000,,,,0.007052,,,,,,1
54973.200000,,,,-0.105939,,,,,,0
54974.800000,,,,0.004707,,,,,,1
54975.100000,,,,0.003879,,,,,,0
54975.900000,,,,0.009122,,,,,,1
54976.900000,,,,0.000706,,,,,,0
54977.700000,,,,0.079345,,,,,,1
54978.300000,,,,0.006501,,,,,,0
54978.700000,,,,0.021952,,,,,,1
54979.500000,,,,-0.038337,,,,,,0
54980.000000,,,,0.024298,,,,,,1
54980.800000,,,,-0.089797,,,,,,0
54981.700000,,,,0.002362,,,,,,1
54982.600000,,,,0.000568,,,,,,0
54983.400000,,,,0.000706,,,,,,0
54984.200000,,,,0.001672,,,,,,1
54984.600000,,,,0.000430,,,,,,0
54985.300000,,,,0.084725,,,,,,1
54986.000000,,,,-0.005226,,,,,,0
54986.400000,,,,0.020849,,,,,,1
54987.100000,,,,-0.054755,,,,,,0
54987.700000,,,,0.025953,,,,,,1
54988.400000,,,,-0.082623,,,,,,0
54989.100000,,,,0.008570,,,,,,1
54990.500000,,,,-0.000536,,,,,,0
54991.300000,,,,0.002362,,,,,,1
54992.400000,,,,-0.001363,,,,,,0
54993.000000,,,,0.077275,,,,,,1
54993.800000,,,,-0.001501,,,,,,0
54994.000000,,,,0.040439,,,,,,1
54994.900000,,,,-0.044270,,,,,,0
54995.500000,,,,0.013813,,,,,,1
54996.300000,,,,-0.091177,,,,,,0
54997.500000,,,,0.002638,,,,,,1
54997.900000,,,,0.001396,,,,,,0
54999.700000,,,,-0.000260,,,,,,0
55000.300000,,,,0.000844,,,,,,1
55000.700000,,,,-0.000536,,,,,,0
55001.400000,,,,0.087209,,,,,,1
55002.100000,,,,-0.010193,,,,,,0
55002.600000,,,,0.036714,,,,,,1
55003.200000,,,,-0.039303,,,,,,0
55003.800000,,,,0.017124,,,,,,1
55004.600000,,,,-0.090349,,,,,,0
55005.300000,,,,0.003465,,,,,,1
55005.900000,,,,-0.002329,,,,,,0
55006.800000,,,,0.003741,,,,,,1
55007.400000,,,,0.004155,,,,,,1
55008.000000,,,,-0.001363,,,,,,0
55008.800000,,,,0.001120,,,,,,1
55009.300000,,,,-0.000122,,,,,,0
55010.200000,,,,0.098798,,,,,,1
55011.000000,,,,-0.019850,,,,,,0
55011.400000,,,,0.011881,,,,,,1
55012.200000,,,,-0.036130,,,,,,0
55012.500000,,,,-0.000398,,,,,,1
55013.300000,,,,-0.073242,,,,,,0
55014.200000,,,,0.003603,,,,,,1
55014.900000,,,,0.000016,,,,,,0
55016.100000,,,,0.003189,,,,,,1
54914.700000,,,,,-0.002522,,,,,1
54916.000000,,,,,-0.031358,,,,,0
54918.500000,,,,,0.000986,,,,,1
54918.600000,,,,,-0.004148,,,,,0
54920.100000,,,,,0.002526,,,,,1
54920.800000,,,,,0.000387,,,,,0
54921.000000,,,,,0.001157,,,,,1
54922.100000,,,,,-0.000212,,,,,0
54922.400000,,,,,0.000216,,,,,1
54923.200000,,,,,-0.000469,,,,,0
54924.000000,,,,,0.004922,,,,,1
54924.800000,,,,,-0.039230,,,,,0
54926.300000,,,,,0.068325,,,,,1
54927.600000,,,,,-0.078076,,,,,0
54928.600000,,,,,0.047961,,,,,1
54929.400000,,,,,-0.003806,,,,,0
54930.200000,,,,,0.000216,,,,,1
54930.400000,,,,,-0.000554,,,,,0
54930.700000,,,,,0.000045,,,,,1
54930.900000,,,,,-0.000554,,,,,0
54931.700000,,,,,0.001242,,,,,1
54932.400000,,,,,-0.000554,,,,,0
54933.600000,,,,,0.002868,,,,,1
54934.600000,,,,,-0.036577,,,,,0
54935.400000,,,,,0.073972,,,,,1
54936.200000,,,,,-0.073028,,,,,0
54937.300000,,,,,0.048816,,,,,1
54937.900000,,,,,-0.010309,,,,,0
54939.100000,,,,,-0.002693,,,,,0
54940.600000,,,,,0.002612,,,,,1
54941.600000,,,,,-0.038973,,,,,0
54942.400000,,,,,0.069951,,,,,1
54943.300000,,,,,-0.071402,,,,,0
54944.300000,,,,,0.034270,,,,,1
54945.100000,,,,,-0.002522,,,,,0
54946.200000,,,,,0.000301,,,,,1
54946.700000,,,,,-0.000298,,,,,0
54947.300000,,,,,0.000558,,,,,1
54947.900000,,,,,0.000130,,,,,0
54948.300000,,,,,0.000558,,,,,1
54949.200000,,,,,-0.000383,,,,,0
54949.800000,,,,,-0.000041,,,,,1
54950.900000,,,,,-0.032470,,,,,0
54951.700000,,,,,0.077224,,,,,1
54952.500000,,,,,-0.086547,,,,,0
54953.700000,,,,,0.047191,,,,,1
54954.800000,,,,,-0.001239,,,,,0
54955.000000,,,,,0.001157,,,,,1
54955.900000,,,,,-0.001581,,,,,0
54956.200000,,,,,0.001157,,,,,1
54957.000000,,,,,-0.001923,,,,,0
54958.300000,,,,,0.001756,,,,,1
54958.800000,,,,,0.000472,,,,,0
54959.200000,,,,,0.001157,,,,,1
54959.700000,,,,,0.002612,,,,,1
54960.500000,,,,,-0.037176,,,,,0
54961.300000,,,,,0.081331,,,,,1
54962.100000,,,,,-0.073455,,,,,0
54963.500000,,,,,0.056261,,,,,1
54964.000000,,,,,-0.000383,,,,,0
54965.700000,,,,,-0.000640,,,,,0
54966.100000,,,,,-0.000041,,,,,1
54966.800000,,,,,0.000045,,,,,1
54967.500000,,,,,-0.001153,,,,,0
54967.900000,,,,,-0.000640,,,,,1
54968.300000,,,,,-0.001239,,,,,0
54969.100000,,,,,0.001756,,,,,1
54969.900000,,,,,-0.034866,,,,,0
54971.000000,,,,,0.074657,,,,,1
54971.900000,,,,,-0.089028,,,,,0
54973.100000,,,,,0.047875,,,,,1
54975.400000,,,,,-0.002009,,,,,0
54976.200000,,,,,0.001071,,,,,1
54976.400000,,,,,0.000045,,,,,0
54977.100000,,,,,0.002612,,,,,1
54978.000000,,,,,-0.038802,,,,,0
54978.800000,,,,,0.071405,,,,,1
54979.500000,,,,,-0.063102,,,,,0
54980.700000,,,,,0.047704,,,,,1
54981.700000,,,,,-0.001923,,,,,0
54982.100000,,,,,0.000986,,,,,1
54982.500000,,,,,0.000045,,,,,0
54982.900000,,,,,0.000472,,,,,1
54984.100000,,,,,0.001499,,,,,1
54984.400000,,,,,0.000387,,,,,0
54984.800000,,,,,0.003724,,,,,1
54985.700000,,,,,-0.037176,,,,,0
54986.400000,,,,,0.091342,,,,,1
54987.100000,,,,,-0.107339,,,,,0
54988.300000,,,,,0.040089,,,,,1
54990.300000,,,,,-0.000469,,,,,0
54991.200000,,,,,0.002697,,,,,1
54992.100000,,,,,-0.000212,,,,,0
54992.400000,,,,,0.005949,,,,,1
54993.200000,,,,,-0.042224,,,,,0
54994.100000,,,,,0.092027,,,,,1
54994.800000,,,,,-0.097242,,,,,0
54995.900000,,,,,0.034527,,,,,1
54996.800000,,,,,-0.003464,,,,,0
54997.500000,,,,,0.003467,,,,,1
54999.000000,,,,,-0.000212,,,,,0
54999.500000,,,,,0.000815,,,,,1
55000.200000,,,,,-0.000469,,,,,0
55000.800000,,,,,0.007146,,,,,1
55001.600000,,,,,-0.026224,,,,,0
55002.400000,,,,,0.093396,,,,,1
55003.300000,,,,,-0.085948,,,,,0
55004.300000,,,,,0.031105,,,,,1
55005.900000,,,,,0.000815,,,,,0
55007.700000,,,,,0.000558,,,,,1
55008.000000,,,,,-0.000811,,,,,0
55008.500000,,,,,-0.001581,,,,,0
55009.300000,,,,,-0.002865,,,,,0
55009.500000,,,,,-0.000383,,,,,1
55010.400000,,,,,-0.031871,,,,,0
55011.200000,,,,,0.074657,,,,,1
55012.000000,,,,,-0.069519,,,,,0
55013.300000,,,,,0.039148,,,,,1
55014.600000,,,,,-0.001324,,,,,0
55016.200000,,,,,0.006120,,,,,1
55017.200000,,,,,0.001071,,,,,0
54914.700000,,,,,,-0.003816,,,,0
54916.200000,,,,,,0.228809,,,,1
54918.100000,,,,,,-0.018156,,,,0
54919.500000,,,,,,-0.004170,,,,1
54920.300000,,,,,,-0.005056,,,,0
54921.300000,,,,,,-0.003639,,,,1
54922.100000,,,,,,-0.005587,,,,0
54922.400000,,,,,,-0.004878,,,,1
54923.900000,,,,,,-0.004347,,,,1
54924.400000,,,,,,-0.027185,,,,0
54925.100000,,,,,,0.008399,,,,1
54926.400000,,,,,,-0.049492,,,,0
54927.500000,,,,,,0.043275,,,,1
54928.300000,,,,,,-0.013022,,,,0
54928.700000,,,,,,-0.004524,,,,1
54928.900000,,,,,,-0.008242,,,,0
54929.900000,,,,,,-0.004170,,,,1
54930.200000,,,,,,-0.005233,,,,0
54930.800000,,,,,,-0.005410,,,,0
54931.700000,,,,,,-0.003285,,,,1
54932.600000,,,,,,-0.005233,,,,0
54933.400000,,,,,,-0.004347,,,,1
54933.900000,,,,,,-0.007003,,,,0
54934.700000,,,,,,0.022739,,,,1
54935.400000,,,,,,-0.014084,,,,0
54936.200000,,,,,,0.022562,,,,1
54937.600000,,,,,,-0.040994,,,,0
54938.000000,,,,,,-0.000630,,,,1
54939.700000,,,,,,-0.005587,,,,0
54940.500000,,,,,,-0.005056,,,,0
54941.500000,,,,,,0.017251,,,,1
54942.300000,,,,,,-0.051439,,,,0
54943.300000,,,,,,0.028050,,,,1
54944.200000,,,,,,-0.018156,,,,0
54945.200000,,,,,,-0.003462,,,,1
54946.900000,,,,,,-0.005587,,,,0
54947.100000,,,,,,-0.005056,,,,1
54947.600000,,,,,,-0.005233,,,,0
54949.300000,,,,,,-0.004878,,,,1
54950.100000,,,,,,-0.006118,,,,0
54951.100000,,,,,,0.007337,,,,1
54951.900000,,,,,,-0.014793,,,,0
54952.500000,,,,,,0.027519,,,,1
54953.500000,,,,,,-0.019041,,,,0
54954.300000,,,,,,-0.001161,,,,1
54954.600000,,,,,,-0.007003,,,,0
54955.200000,,,,,,-0.002931,,,,1
54956.000000,,,,,,-0.006649,,,,0
54956.300000,,,,,,-0.004524,,,,1
54956.800000,,,,,,-0.004347,,,,1
54957.100000,,,,,,-0.005941,,,,0
54957.900000,,,,,,-0.001692,,,,1
54958.300000,,,,,,-0.004524,,,,0
54958.600000,,,,,,-0.002400,,,,1
54960.200000,,,,,,-0.024884,,,,0
54960.800000,,,,,,0.029112,,,,1
54961.400000,,,,,,-0.030903,,,,0
54962.100000,,,,,,0.066644,,,,1
54963.300000,,,,,,-0.053209,,,,0
54964.300000,,,,,,-0.002223,,,,1
54964.700000,,,,,,-0.005941,,,,0
54965.500000,,,,,,-0.003639,,,,1
54966.800000,,,,,,-0.005941,,,,0
54967.700000,,,,,,-0.005587,,,,0
54969.600000,,,,,,-0.021343,,,,0
54970.300000,,,,,,0.028404,,,,1
54970.900000,,,,,,-0.043649,,,,0
54971.900000,,,,,,0.069300,,,,1
54972.900000,,,,,,-0.050023,,,,0
54975.100000,,,,,,-0.002046,,,,1
54976.600000,,,,,,-0.011783,,,,0
54977.200000,,,,,,-0.004878,,,,1
54977.500000,,,,,,-0.017448,,,,0
54977.900000,,,,,,0.014241,,,,1
54978.700000,,,,,,-0.025592,,,,0
54979.400000,,,,,,0.043807,,,,1
54980.500000,,,,,,-0.028247,,,,0
54981.300000,,,,,,-0.003639,,,,1
54982.200000,,,,,,-0.003816,,,,1
54983.200000,,,,,,-0.005233,,,,0
54983.400000,,,,,,-0.004524,,,,1
54984.000000,,,,,,-0.004701,,,,1
54984.200000,,,,,,-0.005587,,,,0
54984.700000,,,,,,-0.004347,,,,1
54985.000000,,,,,,-0.014084,,,,0
54985.600000,,,,,,0.036017,,,,1
54986.400000,,,,,,-0.036568,,,,0
54987.100000,,,,,,0.055137,,,,1
54988.200000,,,,,,-0.023113,,,,0
54988.900000,,,,,,-0.005764,,,,1
54990.200000,,,,,,-0.004524,,,,1
54990.500000,,,,,,-0.005764,,,,0
54991.300000,,,,,,-0.004170,,,,1
54991.700000,,,,,,-0.005764,,,,0
54991.900000,,,,,,-0.004878,,,,1
54992.800000,,,,,,-0.028955,,,,0
54993.500000,,,,,,0.017782,,,,1
54994.000000,,,,,,-0.058520,,,,0
54994.900000,,,,,,0.052481,,,,1
54996.100000,,,,,,-0.031788,,,,0
54996.800000,,,,,,-0.003462,,,,1
54997.200000,,,,,,-0.006295,,,,0
54998.100000,,,,,,-0.005764,,,,0
54998.800000,,,,,,-0.004701,,,,1
55000.700000,,,,,,-0.003462,,,,1
55001.200000,,,,,,-0.013199,,,,0
55001.900000,,,,,,0.021500,,,,1
55002.300000,,,,,,-0.036745,,,,0
55003.400000,,,,,,0.038495,,,,1
55004.100000,,,,,,-0.024884,,,,0
55004.900000,,,,,,-0.000630,,,,1
55005.400000,,,,,,-0.002223,,,,1
55006.600000,,,,,,-0.006649,,,,0
55007.500000,,,,,,-0.001161,,,,1
55009.100000,,,,,,-0.005056,,,,1
55009.600000,,,,,,-0.006118,,,,1
55009.900000,,,,,,-0.013553,,,,0
55010.500000,,,,,,0.018313,,,,1
55011.100000,,,,,,-0.039755,,,,0
55013.300000,,,,,,-0.021874,,,,0
55013.700000,,,,,,0.000964,,,,1
55015.200000,,,,,,-0.005233,,,,0
55016.200000,,,,,,-0.001338,,,,0
55017.200000,,,,,,-0.003462,,,,0
54914.800000,,,,,,,,-0.098628,,1
54915.800000,,,,,,,,-0.122166,,0
54916.700000,,,,,,,,0.098079,,1
54918.000000,,,,,,,,0.005793,,0
54919.300000,,,,,,,,0.009892,,1
54920.400000,,,,,,,,0.005520,,0
54921.200000,,,,,,,,0.008094,,1
54921.500000,,,,,,,,0.007573,,0
54922.200000,,,,,,,,0.008473,,1
54923.100000,,,,,,,,0.006385,,0
54923.900000,,,,,,,,0.008467,,1
54925.300000,,,,,,,,-0.065022,,0
54927.100000,,,,,,,,-0.023865,,1
54928.200000,,,,,,,,-0.059569,,0
54929.300000,,,,,,,,0.022230,,1
54929.600000,,,,,,,,0.021390,,0
54930.100000,,,,,,,,0.021142,,0
54930.400000,,,,,,,,0.021631,,1
54930.900000,,,,,,,,0.021644,,1
54932.200000,,,,,,,,0.017773,,0
54933.000000,,,,,,,,0.019285,,1
54934.900000,,,,,,,,-0.051384,,0
54935.800000,,,,,,,,-0.020742,,1
54936.800000,,,,,,,,-0.052058,,0
54938.000000,,,,,,,,0.021157,,1
54939.100000,,,,,,,,0.020150,,1
54939.200000,,,,,,,,0.019379,,0
54939.800000,,,,,,,,0.019626,,0
54940.600000,,,,,,,,0.021705,,1
54942.000000,,,,,,,,-0.052531,,0
54943.000000,,,,,,,,-0.020724,,1
54944.000000,,,,,,,,-0.045192,,0
54945.600000,,,,,,,,0.022889,,1
54946.400000,,,,,,,,0.020421,,0
54947.200000,,,,,,,,0.021916,,1
54948.000000,,,,,,,,0.018562,,0
54948.600000,,,,,,,,0.020366,,1
54949.700000,,,,,,,,0.018491,,0
54949.900000,,,,,,,,0.019095,,1
54951.300000,,,,,,,,-0.041313,,0
54952.100000,,,,,,,,-0.019174,,1
54952.400000,,,,,,,,-0.020908,,0
54952.700000,,,,,,,,-0.018945,,1
54953.300000,,,,,,,,-0.049261,,0
54955.000000,,,,,,,,0.030708,,1
54955.700000,,,,,,,,0.027724,,0
54956.700000,,,,,,,,0.026372,,0
54957.400000,,,,,,,,0.027925,,1
54958.600000,,,,,,,,0.023595,,0
54959.000000,,,,,,,,0.024178,,1
54959.500000,,,,,,,,0.023480,,0
54959.900000,,,,,,,,0.025113,,1
54961.000000,,,,,,,,-0.050567,,0
54961.800000,,,,,,,,-0.026999,,1
54963.000000,,,,,,,,-0.058303,,0
54964.200000,,,,,,,,0.032210,,1
54964.800000,,,,,,,,0.031086,,0
54966.400000,,,,,,,,0.029392,,0
54967.200000,,,,,,,,0.031952,,1
54967.800000,,,,,,,,0.031790,,1
54968.400000,,,,,,,,0.031024,,0
54968.900000,,,,,,,,0.031108,,0
54969.200000,,,,,,,,0.031786,,1
54970.500000,,,,,,,,-0.048235,,0
54971.400000,,,,,,,,-0.024234,,1
54972.700000,,,,,,,,-0.067127,,0
54973.900000,,,,,,,,0.037358,,1
54975.600000,,,,,,,,0.031292,,0
54976.200000,,,,,,,,0.032781,,1
54976.500000,,,,,,,,0.031536,,0
54976.900000,,,,,,,,0.033243,,1
54978.400000,,,,,,,,-0.034976,,0
54979.100000,,,,,,,,-0.024733,,1
54980.300000,,,,,,,,-0.052832,,0
54981.400000,,,,,,,,0.021540,,1
54982.200000,,,,,,,,0.020488,,0
54982.400000,,,,,,,,0.021351,,1
54983.300000,,,,,,,,0.019135,,0
54984.100000,,,,,,,,0.020308,,1
54986.000000,,,,,,,,-0.047499,,0
54987.000000,,,,,,,,-0.025941,,0
54987.400000,,,,,,,,-0.013445,,1
54987.900000,,,,,,,,-0.046340,,0
54988.800000,,,,,,,,0.034877,,1
54990.700000,,,,,,,,0.015577,,0
54991.500000,,,,,,,,0.017263,,1
54991.900000,,,,,,,,0.015516,,0
54992.500000,,,,,,,,0.016547,,1
54993.700000,,,,,,,,-0.048804,,0
54994.600000,,,,,,,,-0.022230,,1
54994.900000,,,,,,,,-0.027830,,0
54995.200000,,,,,,,,-0.025471,,1
54995.700000,,,,,,,,-0.042417,,0
54997.200000,,,,,,,,0.036084,,1
54998.600000,,,,,,,,0.029179,,0
54998.800000,,,,,,,,0.030125,,1
54999.600000,,,,,,,,0.029044,,0
54999.700000,,,,,,,,0.029700,,1
55002.100000,,,,,,,,-0.042318,,0
55003.000000,,,,,,,,-0.021097,,1
55003.600000,,,,,,,,-0.021969,,1
55004.100000,,,,,,,,-0.043511,,0
55005.000000,,,,,,,,0.031633,,1
55006.200000,,,,,,,,0.026606,,0
55007.100000,,,,,,,,0.027674,,1
55008.000000,,,,,,,,0.020926,,0
55009.300000,,,,,,,,0.023304,,1
55010.800000,,,,,,,,-0.063924,,0
55011.800000,,,,,,,,-0.024493,,1
55012.700000,,,,,,,,-0.050957,,0
55013.700000,,,,,,,,0.016799,,1
55014.500000,,,,,,,,0.011027,,0
55014.900000,,,,,,,,0.011865,,1
55015.100000,,,,,,,,0.010775,,0
55017.100000,,,,,,,,0.002232,,0
54914.700000,,,,,,,,,0.088795,0
54915.000000,,,,,,,,,0.090142,1
54916.500000,,,,,,,,,-0.045488,0
54917.700000,,,,,,,,,0.024400,1
54919.200000,,,,,,,,,0.016676,0
54920.900000,,,,,,,,,0.022503,0
54921.700000,,,,,,,,,0.024845,1
54922.700000,,,,,,,,,0.021942,0
54922.800000,,,,,,,,,0.023018,1
54923.200000,,,,,,,,,0.021776,0
54924.000000,,,,,,,,,0.023517,1
54925.900000,,,,,,,,,-0.088733,0
54927.000000,,,,,,,,,0.016498,1
54928.200000,,,,,,,,,-0.074050,0
54929.800000,,,,,,,,,0.023505,1
54930.200000,,,,,,,,,0.022397,0
54930.500000,,,,,,,,,0.023519,1
54931.500000,,,,,,,,,0.020965,0
54932.300000,,,,,,,,,0.025645,1
54932.800000,,,,,,,,,0.022979,0
54933.600000,,,,,,,,,0.024406,1
54935.000000,,,,,,,,,-0.046856,0
54935.800000,,,,,,,,,0.017676,1
54936.800000,,,,,,,,,-0.076343,0
54937.900000,,,,,,,,,0.026177,1
54938.300000,,,,,,,,,0.024598,0
54939.100000,,,,,,,,,0.028485,1
54942.100000,,,,,,,,,-0.062775,0
54943.000000,,,,,,,,,0.015161,1
54943.800000,,,,,,,,,-0.070555,0
54945.100000,,,,,,,,,0.020516,1
54945.600000,,,,,,,,,0.020830,1
54945.900000,,,,,,,,,0.018741,0
54946.700000,,,,,,,,,0.022268,1
54947.500000,,,,,,,,,0.017335,0
54948.700000,,,,,,,,,0.021874,1
54949.200000,,,,,,,,,0.019595,0
54950.000000,,,,,,,,,0.023921,1
54951.300000,,,,,,,,,-0.055412,0
54952.200000,,,,,,,,,0.016375,1
54953.100000,,,,,,,,,-0.084422,0
54955.200000,,,,,,,,,0.019291,1
54956.100000,,,,,,,,,0.015576,0
54956.900000,,,,,,,,,0.020832,1
54957.800000,,,,,,,,,0.019532,1
54958.100000,,,,,,,,,0.018472,0
54959.000000,,,,,,,,,0.023134,1
54959.600000,,,,,,,,,0.022631,1
54960.900000,,,,,,,,,-0.068903,0
54961.800000,,,,,,,,,0.021832,1
54962.800000,,,,,,,,,-0.077049,0
54964.900000,,,,,,,,,0.019563,1
54965.600000,,,,,,,,,0.017905,0
54966.100000,,,,,,,,,0.020999,1
54966.900000,,,,,,,,,0.017691,0
54967.800000,,,,,,,,,0.021291,1
54968.500000,,,,,,,,,0.018383,0
54969.200000,,,,,,,,,0.020774,1
54970.500000,,,,,,,,,-0.068119,0
54971.500000,,,,,,,,,0.021282,1
54972.600000,,,,,,,,,-0.075858,0
54974.000000,,,,,,,,,0.016030,1
54975.200000,,,,,,,,,0.013998,0
54975.900000,,,,,,,,,0.016150,0
54976.500000,,,,,,,,,0.018726,1
54978.300000,,,,,,,,,-0.067712,0
54979.100000,,,,,,,,,0.019918,1
54980.100000,,,,,,,,,-0.064935,0
54981.400000,,,,,,,,,0.016467,1
54982.000000,,,,,,,,,0.014036,0
54983.500000,,,,,,,,,0.020081,1
54983.700000,,,,,,,,,0.018132,0
54984.500000,,,,,,,,,0.022147,1
54985.900000,,,,,,,,,-0.044156,0
54986.800000,,,,,,,,,0.020937,1
54987.700000,,,,,,,,,-0.099509,0
54990.100000,,,,,,,,,0.009091,1
54990.900000,,,,,,,,,0.006667,0
54991.600000,,,,,,,,,0.012720,1
54992.000000,,,,,,,,,0.010857,0
54993.700000,,,,,,,,,-0.069847,0
54994.600000,,,,,,,,,0.020213,1
54995.500000,,,,,,,,,-0.076321,0
54996.800000,,,,,,,,,0.009448,1
54997.300000,,,,,,,,,0.007210,0
54998.100000,,,,,,,,,0.013149,1
54999.100000,,,,,,,,,0.008977,0
54999.900000,,,,,,,,,0.013739,1
55000.600000,,,,,,,,,0.009972,0
55001.000000,,,,,,,,,0.013277,1
55002.000000,,,,,,,,,-0.060575,0
55003.000000,,,,,,,,,0.019985,1
55003.900000,,,,,,,,,-0.065850,0
55005.500000,,,,,,,,,0.012650,1
55006.100000,,,,,,,,,0.011337,0
55007.400000,,,,,,,,,0.017710,0
55008.100000,,,,,,,,,0.020199,1
55008.900000,,,,,,,,,0.013367,0
55009.300000,,,,,,,,,0.016963,1
55010.900000,,,,,,,,,-0.041270,0
55011.800000,,,,,,,,,0.020587,1
55012.800000,,,,,,,,,-0.055461,0
55014.900000,,,,,,,,,0.023118,1
55017.200000,,,,,,,,,0.030567,1
