time,ax,ay,az,gx,gy,gz,mx,my,mz,
56450.4,0.01,0.00,0.93,0.02,-0.01,-0.23,-34.41,-9.08,-23.11,
56450.5,0.11,-0.02,0.96,-0.34,-0.15,0.23,-35.24,-8.44,-24.48,
56450.6,-0.04,-0.02,0.97,-0.08,-0.05,-0.10,-33.35,-9.04,-22.28,
56450.7,-0.04,-0.05,1.00,0.08,-0.18,-0.05,-33.94,-8.76,-23.22,
56450.8,-0.06,-0.05,0.96,0.24,-0.18,0.03,-34.78,-8.26,-22.87,
56450.9,-0.07,-0.06,0.91,0.32,-0.23,0.12,-35.48,-8.93,-21.38,
56451.0,-0.10,0.02,0.97,0.26,-0.21,0.32,-35.65,-8.08,-21.21,
56451.1,0.02,0.04,0.88,0.28,-0.02,0.53,-36.11,-6.69,-20.23,
56451.2,-0.06,0.14,0.85,0.20,0.09,0.37,-38.04,-4.66,-21.21,
56451.3,0.08,0.12,0.90,0.16,0.12,0.16,-36.63,-4.26,-20.70,
56451.4,0.02,0.14,0.88,0.06,0.14,-0.02,-39.41,-4.31,-21.88,
56451.5,0.06,0.15,0.85,0.09,-0.18,-0.20,-36.85,-3.80,-22.38,
56451.6,0.10,0.15,0.90,0.01,-0.29,-0.42,-38.10,-5.07,-22.76,
56451.7,0.07,0.13,0.96,0.11,-0.08,-0.50,-37.53,-6.20,-21.38,
56451.8,-0.04,0.20,0.87,0.17,0.16,-0.40,-38.71,-8.93,-21.00,
56451.9,0.03,0.18,0.90,0.03,-0.21,-0.39,-38.75,-10.64,-21.38,
56452.0,0.12,0.20,0.91,-0.06,-0.20,0.25,-38.38,-13.52,-20.27,
56452.1,0.14,0.19,0.89,0.07,-0.17,0.29,-39.43,-10.45,-21.06,
56452.2,0.12,0.21,0.84,0.16,-0.04,0.18,-38.90,-10.30,-20.37,
56452.3,0.15,0.22,0.89,0.06,0.12,0.27,-40.28,-10.65,-19.88,
56452.4,0.12,0.21,0.90,-0.00,0.22,0.27,-38.90,-8.04,-19.83,
56452.5,0.13,0.15,0.92,-0.04,0.22,0.30,-39.92,-6.54,-20.71,
56452.6,0.10,0.15,0.88,0.00,0.07,0.25,-37.94,-6.55,-21.06,
56452.7,0.08,0.16,0.87,0.04,0.23,0.08,-39.40,-5.73,-21.93,
56452.8,0.06,0.13,0.92,-0.01,-0.11,-0.03,-39.92,-6.88,-23.05,
56452.9,0.07,0.14,0.89,0.08,0.05,-0.03,-38.78,-5.26,-22.69,
56453.0,0.01,0.17,0.91,-0.03,0.14,-0.18,-37.53,-6.20,-22.72,
56453.1,0.07,0.15,0.95,-0.11,-0.18,0.05,-38.39,-7.05,-23.22,
56453.2,0.06,0.13,0.88,-0.05,-0.16,0.10,-38.21,-5.07,-22.39,
56453.3,0.11,0.16,0.90,0.03,-0.14,-0.06,-39.24,-4.48,-21.04,
56453.4,0.04,0.16,0.89,0.03,0.12,0.03,-40.08,-5.78,-22.08,
56453.5,0.09,0.15,0.89,-0.00,0.12,0.16,-38.56,-5.51,-21.04,
56453.6,0.11,0.13,0.91,-0.11,0.06,0.13,-39.75,-3.63,-20.54,
56453.7,0.11,0.12,0.90,-0.16,0.20,0.07,-38.86,-3.01,-22.62,
56453.8,-0.07,0.08,0.85,-0.26,0.88,0.06,-37.70,-3.97,-24.23,
56453.9,-0.07,0.08,0.93,-0.34,0.33,0.15,-36.98,-2.60,-26.49,
56454.0,-0.02,0.05,1.00,-0.29,0.08,0.20,-35.65,-1.23,-27.24,
56454.1,0.07,0.06,0.99,-0.04,-0.26,0.01,-36.69,1.05,-28.50,
56454.2,-0.11,0.02,0.91,-0.04,-0.03,0.00,-36.39,0.53,-28.38,
56454.3,-0.08,0.01,0.92,-0.02,0.05,0.08,-36.85,0.31,-29.09,
56454.4,-0.05,0.01,0.93,-0.01,0.04,0.02,-36.60,0.88,-28.83,
56454.5,-0.08,0.01,0.93,-0.01,0.03,-0.02,-35.38,1.91,-28.98,
56454.6,-0.07,0.01,0.92,0.00,-0.03,0.02,-36.33,1.85,-28.92,
56454.7,-0.07,0.01,0.94,-0.00,0.01,-0.00,-36.00,0.84,-27.28,
56454.8,-0.07,0.00,0.91,-0.01,0.00,0.02,-36.16,0.31,-28.42,
56454.9,-0.07,0.00,0.92,-0.01,0.02,0.01,-36.16,0.65,-26.74,
56455.0,-0.06,0.00,0.93,-0.01,0.01,-0.01,-36.53,1.35,-27.87,
56455.1,-0.08,-0.00,0.93,-0.01,0.03,-0.02,-35.82,1.33,-28.75,
56455.2,-0.07,-0.00,0.93,-0.01,0.03,-0.02,-35.48,0.99,-26.74,
56455.3,-0.07,-0.01,0.92,0.01,0.00,-0.04,-35.50,0.84,-28.09,
56455.4,-0.07,-0.01,0.93,0.01,0.04,-0.04,-36.67,2.53,-29.25,
56455.5,-0.07,-0.01,0.93,0.02,0.09,-0.04,-35.97,0.41,-28.40,
56455.6,-0.06,-0.00,0.92,0.05,0.14,-0.12,-36.33,0.13,-28.58,
56455.7,-0.08,-0.01,0.94,0.02,0.09,-0.15,-36.51,-0.03,-28.42,
56455.8,-0.08,0.00,0.94,0.01,-0.06,-0.07,-34.95,-1.19,-29.67,
56455.9,-0.12,0.00,0.91,0.01,-0.08,0.02,-37.36,-1.23,-27.58,
56456.0,-0.09,0.00,0.91,-0.00,-0.06,0.02,-35.32,-1.22,-29.27,
56456.1,-0.07,0.00,0.93,0.03,-0.06,-0.01,-35.13,0.65,-28.08,
56456.2,-0.07,-0.01,0.93,0.02,-0.09,-0.02,-34.90,-1.23,-27.70,
56456.3,-0.06,0.00,0.92,0.02,0.01,-0.02,-36.54,-0.86,-28.31,
56456.4,-0.06,0.01,0.92,0.01,-0.02,-0.02,-36.67,-0.21,-27.58,
56456.5,-0.07,-0.00,0.93,0.02,-0.02,-0.00,-35.99,-0.89,-27.24,
56456.6,-0.07,-0.00,0.93,0.01,-0.01,-0.02,-35.99,-1.58,-28.25,
56456.7,-0.06,0.00,0.94,0.03,-0.00,-0.03,-36.33,-1.23,-26.24,
56456.8,-0.06,0.01,0.92,0.02,-0.05,0.00,-36.16,-2.77,-28.08,
56456.9,-0.06,0.01,0.91,0.01,-0.09,0.03,-36.86,-1.77,-27.69,
56457.0,-0.07,0.00,0.92,0.03,0.04,0.00,-36.40,-2.04,-28.03,
56457.1,-0.05,0.01,0.93,0.02,0.01,0.01,-36.61,-1.54,-26.91,
56457.2,-0.07,0.00,0.92,0.01,-0.01,0.00,-36.87,-2.54,-27.10,
56457.3,-0.06,0.01,0.92,0.01,0.02,-0.00,-35.65,-1.23,-26.91,
56457.4,-0.07,0.01,0.93,0.03,-0.02,-0.03,-36.50,-1.75,-27.41,
56457.5,-0.06,0.01,0.92,0.03,0.03,-0.01,-36.08,-2.62,-27.30,
56457.6,-0.07,0.02,0.91,0.03,0.04,-0.01,-36.13,-3.90,-27.81,
56457.7,-0.05,0.02,0.92,0.02,0.04,0.00,-35.66,-1.92,-28.52,
56457.8,-0.05,0.02,0.93,-0.00,-0.01,-0.01,-36.85,-1.41,-27.51,
56457.9,-0.04,0.02,0.93,0.04,-0.07,-0.04,-37.19,-1.41,-26.74,
56458.0,-0.05,0.02,0.92,0.04,0.01,-0.02,-37.03,-2.14,-26.89,
56458.1,-0.04,0.01,0.92,0.00,-0.00,0.01,-37.19,-3.46,-27.08,
56458.2,-0.05,0.01,0.92,-0.01,-0.03,0.03,-37.02,-2.94,-26.91,
56458.3,-0.06,0.01,0.92,0.00,-0.01,0.03,-36.25,-2.50,-26.99,
56458.4,-0.05,0.01,0.92,0.01,0.01,0.01,-35.13,-2.09,-27.08,
56458.5,-0.05,0.01,0.93,0.01,0.01,-0.02,-36.51,-2.06,-27.51,
56458.6,-0.06,0.01,0.92,0.02,0.03,-0.02,-38.17,-2.42,-26.78,
56458.7,-0.05,0.02,0.92,0.02,-0.01,-0.02,-35.70,-3.63,-26.60,
56458.8,-0.05,0.02,0.92,0.02,-0.01,-0.01,-38.60,-2.57,-26.18,
56458.9,-0.04,0.01,0.93,0.01,-0.02,0.01,-35.48,-3.46,-27.75,
56459.0,-0.04,0.02,0.92,0.02,-0.00,0.00,-37.39,-2.73,-27.28,
56459.1,-0.04,0.02,0.93,0.01,0.01,-0.01,-36.54,-1.43,-26.94,
56459.2,-0.04,0.02,0.92,0.03,0.01,-0.02,-36.19,-3.47,-26.91,
56459.3,-0.04,0.01,0.92,0.01,-0.02,0.01,-37.19,-2.81,-27.41,
56459.4,-0.04,0.02,0.92,0.01,-0.01,0.01,-35.48,-3.46,-26.07,
56459.5,-0.05,0.01,0.92,0.00,0.00,0.01,-36.55,-2.73,-26.79,
56459.6,-0.04,0.01,0.94,0.00,0.01,0.01,-37.21,-2.22,-27.46,
56459.7,-0.04,0.02,0.92,0.02,0.01,-0.00,-38.04,0.48,-27.58,
56459.8,-0.04,0.01,0.93,0.01,-0.00,-0.01,-37.47,-3.76,-26.70,
56459.9,-0.05,0.02,0.92,0.01,0.00,0.00,-35.65,-2.94,-27.91,
56460.0,-0.04,0.02,0.92,0.01,0.02,0.01,-36.16,-2.77,-26.74,
56460.1,-0.04,0.02,0.93,0.00,-0.00,0.03,-36.68,-1.93,-26.58,
56460.2,-0.03,0.01,0.93,0.02,-0.01,0.02,-36.33,-1.92,-27.24,
56460.3,-0.04,0.02,0.93,0.02,-0.01,-0.01,-37.70,-2.94,-25.90,
56460.4,-0.05,0.02,0.92,0.00,-0.00,-0.02,-36.67,-1.41,-27.08,
56460.5,-0.05,0.02,0.92,-0.00,0.02,0.00,-37.02,-2.94,-25.90,
56460.6,-0.05,0.02,0.93,0.00,-0.00,0.01,-36.33,-2.26,-28.05,
56460.7,-0.05,0.02,0.92,0.02,-0.00,0.02,-34.45,-1.41,-26.07,
56460.8,-0.05,0.01,0.92,-0.01,0.00,0.01,-38.83,-2.76,-28.00,
56460.9,-0.05,0.02,0.94,0.01,0.02,0.00,-36.90,-1.92,-26.53,
56461.0,-0.06,0.02,0.92,0.00,0.01,-0.00,-37.02,-1.58,-26.24,
56461.1,-0.05,0.01,0.93,-0.01,-0.01,0.02,-36.52,-3.31,-27.91,
56461.2,-0.05,0.01,0.93,0.02,0.03,-0.01,-36.85,-2.77,-26.74,
56461.3,-0.04,0.02,0.91,-0.00,-0.00,0.02,-36.91,-2.72,-26.44,
56461.4,-0.02,0.01,0.93,-0.02,-0.04,0.05,-36.66,-3.14,-27.16,
56461.5,-0.05,0.01,0.93,0.02,0.01,-0.01,-37.87,-4.14,-26.41,
56461.6,-0.03,0.00,0.91,0.04,-0.04,0.03,-37.38,-2.32,-26.37,
56461.7,-0.02,0.00,0.92,0.01,0.00,0.02,-36.98,-2.73,-26.45,
56461.8,-0.05,0.00,0.94,-0.00,0.04,-0.01,-37.19,-1.75,-25.07,
56461.9,-0.04,0.02,0.92,-0.00,-0.01,0.02,-37.53,-0.38,-26.74,
56462.0,-0.02,-0.01,0.92,-0.01,0.01,0.00,-37.36,-2.66,-26.87,
56462.1,-0.04,0.00,0.93,-0.02,0.01,0.00,-37.53,-0.73,-26.08,
56462.2,-0.05,0.01,0.93,-0.01,0.05,-0.02,-36.86,-2.20,-26.02,
56462.3,-0.06,0.01,0.91,0.03,0.04,-0.04,-37.44,-1.32,-26.16,
56462.4,-0.06,0.00,0.92,0.01,0.00,0.00,-37.36,-2.60,-27.24,
56462.5,-0.04,0.02,0.93,0.03,0.03,-0.01,-36.43,-2.36,-26.76,
56462.6,-0.05,0.02,0.91,0.06,0.05,-0.01,-36.83,-3.12,-26.10,
56462.7,-0.04,0.01,0.92,0.03,-0.01,0.01,-35.65,-4.31,-25.90,
56462.8,-0.04,0.02,0.93,0.05,0.01,-0.04,-36.41,-3.15,-26.79,
56462.9,-0.05,0.02,0.91,0.03,0.01,-0.07,-36.85,-1.75,-26.74,
56463.0,-0.04,0.01,0.92,0.00,-0.04,-0.03,-36.85,-3.34,-27.48,
56463.1,-0.02,0.01,0.92,-0.01,-0.05,0.01,-36.85,-3.80,-26.07,
56463.2,-0.04,0.01,0.93,-0.01,-0.00,0.00,-37.36,-2.60,-26.24,
56463.3,-0.04,0.02,0.93,0.01,-0.01,-0.01,-37.69,-2.95,-25.54,
56463.4,-0.05,0.01,0.91,0.02,0.07,-0.00,-37.02,-3.63,-25.57,
56463.5,-0.03,0.00,0.93,0.00,-0.03,0.01,-36.78,-2.46,-26.48,
56463.6,-0.03,-0.00,0.92,-0.00,-0.02,0.00,-37.70,-1.23,-25.57,
56463.7,-0.06,0.00,0.93,0.01,0.02,-0.02,-36.33,-2.60,-26.57,
56463.8,-0.04,0.02,0.92,0.02,0.01,0.02,-36.79,-2.57,-27.05,
56463.9,-0.04,0.01,0.93,0.01,-0.00,0.02,-37.29,-3.07,-27.39,
56464.0,-0.03,-0.00,0.90,0.01,0.04,-0.02,-37.70,-2.26,-25.57,
56464.1,-0.04,0.05,0.92,0.09,0.08,-0.02,-37.42,-4.07,-26.42,
56464.2,0.00,0.03,0.91,0.15,-0.02,0.06,-36.21,-3.44,-27.35,
56464.3,-0.04,0.03,0.91,-0.01,0.01,-0.01,-37.36,-3.97,-27.24,
56464.4,-0.07,-0.01,0.96,-0.03,-0.02,0.10,-38.21,-3.12,-28.08,
56464.5,-0.05,0.05,0.90,-0.02,0.10,0.02,-35.31,-2.60,-26.57,
56464.6,-0.05,0.04,0.90,-0.02,0.08,0.02,-37.14,-2.64,-27.00,
56464.7,-0.09,0.01,0.90,-0.10,0.05,0.03,-36.60,-2.77,-27.99,
56464.8,-0.09,-0.00,0.95,-0.05,-0.06,0.01,-37.45,-2.41,-28.36,
56464.9,-0.03,0.00,0.94,-0.04,-0.08,0.08,-35.62,-3.50,-27.82,
56465.0,-0.05,-0.00,0.94,-0.00,0.03,-0.04,-35.99,-1.92,-26.57,
56465.1,-0.09,-0.01,0.93,0.01,0.05,-0.02,-37.43,-1.89,-26.77,
56465.2,-0.07,-0.00,0.91,0.02,0.01,0.01,-35.31,-2.26,-28.25,
56465.3,-0.06,0.00,0.93,0.02,0.03,-0.02,-36.33,-3.29,-28.25,
56465.4,-0.07,-0.00,0.93,0.01,0.00,0.01,-35.76,-2.47,-27.99,
56465.5,-0.04,0.01,0.95,0.02,0.00,-0.01,-38.39,-1.58,-27.58,
56465.6,-0.05,0.02,0.93,0.09,0.04,-0.04,-36.19,-1.43,-26.95,
56465.7,-0.09,0.02,0.93,0.16,0.05,-0.09,-35.48,-2.43,-29.76,
56465.8,-0.07,-0.01,0.94,0.00,-0.11,-0.03,-36.50,-4.14,-27.75,
56465.9,0.01,-0.01,0.94,-0.01,-0.10,-0.10,-36.66,-3.43,-26.90,
56466.0,0.09,0.01,1.01,-0.00,-0.09,-0.34,-35.48,-3.80,-26.74,
56466.1,0.11,0.01,1.03,0.21,1.00,-0.69,-36.23,-4.30,-27.66,
56466.2,-0.02,-0.05,1.05,0.76,-0.02,-1.74,-33.16,-9.81,-27.71,
56466.3,-0.15,0.00,0.98,1.08,-0.16,-2.15,-31.10,-19.19,-27.51,
56466.4,-0.37,0.15,0.86,1.26,-0.10,-1.83,-29.46,-27.49,-23.25,
56466.5,-0.49,0.23,0.65,1.19,0.25,-1.15,-26.92,-34.60,-17.36,
56466.6,-0.21,0.47,0.61,0.55,-0.51,-0.89,-24.70,-38.87,-14.17,
56466.7,-0.40,0.36,0.67,0.03,0.55,-0.56,-24.09,-41.08,-8.55,
56466.8,-0.24,0.32,0.66,-0.11,0.73,-0.57,-25.55,-41.78,-9.31,
56466.9,-0.42,0.18,0.70,-0.02,1.16,-0.42,-25.55,-40.42,-13.33,
56467.0,-0.62,0.12,0.94,0.03,1.07,-0.17,-27.95,-41.44,-16.35,
56467.1,-0.78,0.26,0.80,0.17,1.56,0.21,-30.00,-42.47,-23.05,
56467.2,-0.95,0.30,0.70,-0.10,0.82,0.69,-29.84,-43.74,-25.28,
56467.3,-0.92,0.40,0.72,0.27,-0.15,1.28,-29.49,-39.22,-22.89,
56467.4,-0.60,0.43,0.65,0.60,-0.29,1.63,-28.80,-36.82,-16.52,
56467.5,-0.46,0.58,0.60,0.66,-1.57,1.71,-26.45,-33.00,-11.27,
56467.6,-0.09,0.63,0.56,0.93,-1.40,1.56,-26.75,-30.32,-4.79,
56467.7,0.15,0.76,0.52,0.94,-0.52,1.13,-29.29,-28.54,-0.50,
56467.8,0.24,0.75,0.35,0.80,-1.00,0.78,-31.20,-26.21,2.58,
56467.9,0.34,0.79,0.23,0.43,-0.45,0.40,-31.09,-22.96,7.10,
56468.0,0.29,0.78,0.35,0.12,-0.38,0.16,-30.71,-22.99,8.24,
56468.1,0.30,0.81,0.32,0.17,-0.45,0.00,-30.51,-23.13,10.63,
56468.2,0.33,0.80,0.24,0.08,-0.21,0.06,-32.57,-23.31,12.30,
56468.3,0.38,0.82,0.24,-0.12,0.18,-0.12,-30.69,-22.62,13.14,
56468.4,0.37,0.81,0.21,-0.53,0.46,-0.55,-31.31,-23.84,11.53,
56468.5,0.27,0.77,0.30,-0.97,1.11,-1.06,-30.65,-27.64,8.49,
56468.6,0.09,0.66,0.43,-0.90,2.66,-1.48,-26.07,-28.95,2.92,
56468.7,-0.39,0.57,0.48,-0.53,2.27,-1.75,-24.30,-31.89,-5.79,
56468.8,-0.51,0.41,0.45,-0.86,-0.31,-1.63,-22.04,-32.12,-9.39,
56468.9,-0.89,0.42,0.50,-0.29,2.07,-1.08,-24.70,-34.08,-12.83,
56469.0,-0.94,0.46,0.46,-0.35,0.22,-0.43,-28.97,-37.34,-20.37,
56469.1,-0.65,0.38,0.61,-0.27,0.00,-0.37,-29.66,-38.36,-25.74,
56469.2,-0.78,0.29,0.56,-0.06,0.17,-0.41,-29.83,-39.90,-30.48,
56469.3,-1.08,0.28,0.57,0.19,0.40,-0.02,-32.68,-41.62,-35.55,
56469.4,-0.82,0.24,0.53,0.01,0.01,0.07,-34.11,-44.18,-37.80,
56469.5,-0.84,0.30,0.48,-0.11,-0.86,0.28,-36.16,-45.89,-34.45,
56469.6,-0.73,0.33,0.65,0.01,-1.65,0.69,-35.65,-40.93,-29.25,
56469.7,-0.50,0.35,0.61,-0.01,-2.05,0.96,-32.57,-40.24,-22.89,
56469.8,-0.23,0.52,0.75,0.24,-1.87,0.68,-32.11,-36.67,-12.87,
56469.9,-0.16,0.43,0.67,-0.12,-0.56,1.03,-29.49,-33.74,-8.81,
56470.0,-0.11,0.39,0.66,-0.74,-0.21,1.32,-29.67,-32.54,-10.81,
56470.1,-0.08,0.26,0.73,-0.99,0.07,1.57,-34.45,-26.15,-13.40,
56470.2,0.11,0.19,0.89,-0.86,0.15,1.36,-34.96,-21.08,-16.52,
56470.3,0.10,0.05,0.94,-0.92,0.70,1.37,-37.70,-14.53,-19.58,
56470.4,0.05,-0.00,1.03,-0.60,0.65,1.05,-37.19,-8.25,-24.39,
56470.5,0.05,0.01,0.94,-0.26,0.01,0.66,-37.81,-3.39,-25.57,
56470.6,0.07,-0.01,0.99,-0.23,0.15,0.49,-37.52,0.63,-27.08,
56470.7,-0.01,-0.06,0.98,-0.09,0.10,0.11,-36.50,0.31,-28.42,
56470.8,-0.08,-0.03,0.93,0.01,0.08,-0.03,-36.93,1.93,-27.75,
56470.9,-0.03,-0.03,0.91,0.02,-0.06,0.01,-37.02,2.87,-27.91,
56471.0,-0.06,-0.04,0.94,-0.00,-0.02,-0.06,-36.67,1.16,-29.25,
56471.1,-0.07,-0.04,0.93,-0.00,-0.03,-0.02,-37.19,2.02,-27.75,
56471.2,-0.06,-0.05,0.94,0.00,-0.02,-0.01,-37.70,2.19,-27.24,
56471.3,-0.07,-0.05,0.93,0.04,0.02,-0.02,-36.59,1.74,-27.80,
56471.4,-0.06,-0.04,0.92,0.05,-0.01,-0.03,-37.19,0.99,-28.42,
56471.5,-0.07,-0.03,0.93,0.01,0.03,-0.03,-35.65,0.82,-26.57,
56471.6,-0.07,-0.04,0.92,0.02,0.03,0.01,-37.64,2.15,-27.26,
56471.7,-0.07,-0.04,0.93,0.03,0.00,-0.04,-36.33,2.19,-26.91,
56471.8,-0.07,-0.03,0.91,0.02,-0.02,0.01,-37.22,2.71,-27.82,
56471.9,-0.07,-0.04,0.92,-0.00,0.01,0.02,-35.82,1.33,-27.92,
56472.0,-0.06,-0.03,0.93,0.01,0.00,0.00,-35.31,2.19,-27.58,
56472.1,-0.07,-0.04,0.93,0.01,-0.01,-0.00,-36.17,1.71,-28.25,
56472.2,-0.08,-0.04,0.91,0.00,0.03,-0.01,-36.52,1.12,-28.71,
56472.3,-0.08,-0.06,0.93,0.02,-0.02,0.01,-35.65,2.19,-28.58,
56472.4,-0.06,-0.04,0.91,0.02,-0.00,0.01,-35.35,0.86,-27.29,
56472.5,-0.08,-0.04,0.92,-0.02,-0.03,0.03,-36.50,2.02,-27.08,
56472.6,-0.07,-0.04,0.93,0.02,-0.02,0.01,-36.69,0.64,-28.34,
56472.7,-0.07,-0.03,0.91,0.01,0.04,0.02,-35.82,2.02,-26.07,
56472.8,-0.08,-0.04,0.92,-0.02,0.10,0.01,-36.16,1.33,-27.75,
56472.9,-0.07,-0.03,0.94,0.02,-0.01,-0.02,-36.96,1.30,-28.11,
56473.0,-0.09,-0.03,0.91,0.03,-0.00,-0.02,-37.30,1.75,-26.83,
56473.1,-0.08,-0.04,0.92,-0.00,0.00,0.00,-35.65,2.28,-28.37,
56473.2,-0.07,-0.05,0.92,-0.00,0.00,0.00,-35.48,1.67,-28.42,
56473.3,0.01,0.02,0.96,-0.01,0.03,-0.06,-35.54,1.34,-28.83,
56473.4,0.10,-0.02,0.99,0.13,-0.26,-0.43,-36.27,2.10,-28.15,
56473.5,0.15,-0.08,0.97,0.14,-0.48,-0.92,-36.67,-1.23,-27.58,
56473.6,0.12,-0.08,0.98,-0.07,-0.72,-1.42,-37.36,-6.02,-24.56,
56473.7,0.15,-0.12,1.00,0.06,-0.40,-1.71,-39.07,-10.13,-20.54,
56473.8,-0.01,-0.10,0.96,0.47,0.06,-1.83,-37.93,-17.44,-17.74,
56473.9,-0.08,-0.01,0.91,0.63,0.35,-1.57,-37.12,-21.69,-16.32,
56474.0,-0.11,0.15,0.87,0.83,0.72,-1.17,-34.45,-28.10,-15.01,
56474.1,-0.21,0.33,0.77,0.72,0.66,-1.04,-35.07,-32.94,-14.96,
56474.2,-0.30,0.37,0.78,0.45,0.33,-0.75,-31.03,-38.70,-11.99,
56474.3,-0.17,0.45,0.72,-0.01,0.46,0.20,-30.86,-40.59,-9.14,
56474.4,-0.15,0.37,0.76,-0.09,0.87,-0.13,-30.60,-38.36,-10.96,
56474.5,-0.38,0.12,0.84,-0.40,0.52,-0.49,-32.23,-37.16,-14.17,
56474.6,-0.34,0.17,0.91,0.07,-0.55,-0.17,-33.59,-37.27,-17.70,
56474.7,-0.38,0.24,0.97,0.20,0.44,0.09,-35.49,-35.71,-17.58,
56474.8,-0.48,0.28,0.92,0.23,0.37,0.35,-34.28,-37.16,-18.19,
56474.9,-0.48,0.41,1.01,0.81,-0.38,0.58,-33.84,-35.70,-14.98,
56475.0,-0.38,0.38,0.90,1.23,-1.44,1.10,-29.49,-33.06,-7.47,
56475.1,-0.19,0.52,0.72,1.53,-1.42,1.34,-26.61,-31.62,-0.01,
56475.2,0.14,0.57,0.52,1.44,-1.02,1.42,-25.38,-30.31,5.90,
56475.3,0.30,0.56,0.35,1.31,-0.70,1.10,-28.29,-27.07,8.45,
56475.4,0.38,0.64,0.22,0.95,-0.62,0.67,-27.84,-24.70,11.99,
56475.5,0.47,0.72,0.13,0.65,-0.48,0.50,-28.80,-21.08,15.66,
56475.6,0.62,0.77,0.16,0.26,-0.49,0.19,-28.29,-20.57,19.51,
56475.7,0.59,0.79,0.14,0.05,-0.16,0.02,-28.64,-18.18,19.18,
56475.8,0.50,0.73,0.18,-0.01,-0.27,-0.02,-28.46,-18.69,21.02,
56475.9,0.56,0.75,0.09,-0.12,0.31,-0.18,-28.97,-19.11,20.94,
56476.0,0.53,0.75,0.06,-0.55,0.68,-0.38,-28.97,-21.59,19.18,
56476.1,0.49,0.70,0.17,-1.09,0.56,-0.64,-28.12,-22.79,17.67,
56476.2,0.34,0.67,0.39,-1.44,-0.01,-0.85,-27.45,-25.24,13.29,
56476.3,0.21,0.59,0.54,-1.55,0.70,-0.76,-25.72,-29.38,10.84,
56476.4,0.11,0.50,0.54,-1.69,1.18,-0.80,-24.51,-30.80,5.22,
56476.5,-0.15,0.34,0.86,-1.36,1.95,-0.83,-25.43,-30.49,2.55,
56476.6,-0.33,0.29,0.93,-0.85,1.12,-0.54,-28.46,-32.71,-4.12,
56476.7,-0.37,0.27,0.96,-0.36,1.06,-0.39,-33.94,-32.79,-10.08,
56476.8,-0.46,0.24,0.87,-0.17,0.43,-0.22,-37.15,-34.74,-18.21,
56476.9,-0.31,0.16,1.08,0.30,0.63,-0.25,-37.02,-34.43,-21.21,
56477.0,-0.46,0.26,0.81,0.06,-0.33,0.03,-39.19,-36.14,-23.27,
56477.1,-0.40,0.19,0.81,0.01,-0.14,0.08,-40.10,-36.82,-21.21,
56477.2,-0.41,0.21,0.82,0.09,-0.29,0.11,-39.14,-39.12,-19.10,
56477.3,-0.47,0.17,0.82,0.26,-0.35,0.33,-37.53,-37.68,-18.36,
56477.4,-0.37,0.30,0.72,0.31,0.11,0.60,-34.79,-37.68,-15.01,
56477.5,-0.28,0.39,0.69,-0.26,-0.13,0.76,-33.16,-38.00,-14.18,
56477.6,-0.28,0.30,0.83,-0.70,0.32,1.03,-31.71,-36.31,-18.70,
56477.7,-0.20,0.24,0.96,-0.85,0.23,1.41,-29.30,-33.63,-20.93,
56477.8,-0.34,0.12,0.82,-0.95,0.47,1.86,-29.49,-25.87,-27.58,
56477.9,-0.16,0.06,0.96,-0.86,-0.06,1.79,-31.18,-17.94,-30.28,
56478.0,-0.01,0.00,0.94,-0.80,-0.72,1.56,-33.18,-8.95,-32.02,
56478.1,0.06,0.04,0.89,-0.43,0.20,0.85,-34.62,-5.00,-31.60,
56478.2,-0.08,-0.09,1.00,-0.45,0.37,0.29,-33.94,-0.39,-31.11,
56478.3,-0.15,-0.02,1.02,-0.19,-0.23,-0.06,-32.12,2.03,-33.26,
56478.4,-0.23,-0.04,0.94,0.08,-0.00,-0.08,-32.98,0.51,-32.36,
56478.5,-0.20,-0.05,0.93,0.05,0.04,-0.08,-32.88,0.76,-33.15,
56478.6,-0.21,-0.05,0.91,0.02,-0.04,0.01,-32.74,0.65,-32.77,
56478.7,-0.18,-0.02,0.92,0.05,0.06,-0.02,-33.02,0.60,-31.94,
56478.8,-0.22,-0.04,0.88,0.02,0.02,0.05,-33.57,-0.83,-30.96,
56478.9,-0.21,-0.05,0.92,0.01,0.04,0.01,-33.08,0.65,-31.77,
56479.0,-0.20,-0.04,0.91,0.03,0.06,-0.02,-32.91,0.48,-31.94,
56479.1,-0.19,-0.05,0.93,0.03,-0.02,-0.01,-31.71,0.65,-32.44,
56479.2,-0.19,-0.03,0.91,0.03,-0.05,-0.01,-33.25,0.13,-32.61,
56479.3,-0.19,-0.03,0.92,0.02,-0.03,-0.01,-32.86,0.54,-32.73,
56479.4,-0.20,-0.04,0.91,0.02,0.02,-0.02,-33.44,-0.86,-32.54,
56479.5,-0.20,-0.04,0.90,0.01,0.02,0.01,-33.25,-0.60,-31.66,
56479.6,-0.20,-0.04,0.92,0.01,0.00,0.00,-33.30,0.04,-31.63,
56479.7,-0.19,-0.04,0.91,0.03,0.00,-0.02,-32.05,-0.04,-31.43,
56479.8,-0.20,-0.04,0.91,0.03,-0.02,-0.01,-33.41,-0.04,-33.10,
56479.9,-0.19,-0.03,0.91,0.03,0.02,-0.00,-32.74,-1.06,-33.11,
56480.0,-0.19,-0.04,0.92,0.02,-0.04,-0.02,-32.23,0.82,-32.27,
56480.1,-0.20,-0.04,0.91,0.02,-0.01,-0.03,-33.94,-0.36,-31.57,
56480.2,-0.19,-0.04,0.91,0.02,-0.02,-0.02,-33.43,-0.39,-32.79,
56480.3,-0.21,-0.04,0.90,-0.00,-0.01,0.01,-33.74,-0.39,-31.50,
56480.4,-0.19,-0.03,0.91,-0.02,0.01,0.02,-33.08,-1.75,-31.77,
56480.5,-0.20,-0.04,0.92,0.00,0.00,0.01,-33.42,-0.38,-32.10,
56480.6,-0.19,-0.04,0.91,0.01,0.01,0.01,-33.42,-0.56,-32.01,
56480.7,-0.19,-0.04,0.91,-0.00,0.01,-0.02,-32.05,-0.72,-32.10,
56480.8,-0.18,-0.03,0.92,0.01,-0.01,-0.02,-33.59,-0.55,-31.60,
56480.9,-0.19,-0.03,0.93,0.02,0.05,-0.03,-33.58,-0.54,-31.34,
56481.0,-0.11,-0.04,0.98,0.13,-0.04,-0.07,-33.59,-0.20,-31.93,
56481.1,-0.07,-0.04,0.96,0.23,-0.17,-0.24,-34.54,-1.66,-30.62,
56481.2,0.01,-0.01,0.98,0.25,-0.43,-0.57,-34.62,-2.94,-30.26,
56481.3,0.02,-0.01,1.02,0.36,-0.53,-1.08,-35.99,-6.71,-30.60,
56481.4,0.01,0.00,0.93,0.63,-0.42,-1.43,-35.79,-9.99,-26.32,
56481.5,-0.08,0.04,0.89,0.91,-0.08,-1.59,-35.57,-16.45,-21.88,
56481.6,-0.10,0.12,0.87,0.88,-0.04,-1.76,-34.63,-23.75,-18.29,
56481.7,-0.28,0.29,0.78,0.93,0.57,-1.54,-34.34,-29.65,-17.55,
56481.8,-0.37,0.31,0.66,0.71,0.71,-1.12,-31.37,-35.97,-16.02,
56481.9,-0.41,0.33,0.71,0.33,0.84,-0.69,-32.56,-39.38,-14.69,
56482.0,-0.44,0.36,0.74,0.05,0.78,-0.42,-31.03,-41.78,-17.02,
56482.1,-0.42,0.33,0.71,-0.05,1.34,-0.23,-31.43,-41.62,-19.87,
56482.2,-0.83,0.25,0.55,0.06,2.52,-0.23,-30.34,-42.12,-29.76,
56482.3,-0.75,0.32,0.65,0.13,0.43,-0.02,-27.26,-44.18,-34.11,
56482.4,-0.87,0.29,0.48,-0.04,0.54,0.19,-26.52,-44.46,-36.96,
56482.5,-1.02,0.40,0.42,0.28,1.02,0.87,-25.72,-42.98,-36.96,
56482.6,-0.87,0.50,0.39,0.32,-0.07,1.27,-25.22,-38.71,-27.89,
56482.7,-0.75,0.56,0.34,0.33,-0.25,1.60,-23.18,-35.62,-20.36,
56482.8,-0.48,0.65,0.34,0.39,-0.37,1.90,-22.81,-33.23,-15.68,
56482.9,-0.26,0.70,0.28,0.15,-0.91,1.73,-24.69,-30.19,-12.01,
56483.0,-0.00,0.73,0.37,-0.01,-1.42,1.47,-27.61,-27.75,-9.98,
56483.1,-0.13,0.75,0.34,-0.16,0.08,0.26,-29.49,-25.53,-6.80,
56483.2,0.06,0.82,0.47,-0.16,-0.47,0.20,-30.75,-25.72,-6.48,
56483.3,-0.01,0.84,0.48,-0.10,-0.12,0.13,-30.18,-24.27,-6.38,
56483.4,0.08,0.83,0.49,-0.09,-0.39,0.06,-31.88,-25.53,-7.80,
56483.5,0.10,0.83,0.41,-0.00,-0.16,-0.05,-32.91,-25.87,-6.13,
56483.6,0.13,0.80,0.42,-0.20,0.14,-0.39,-32.40,-24.33,-5.63,
56483.7,-0.03,0.75,0.45,-0.37,0.33,-0.81,-30.55,-26.03,-7.73,
56483.8,-0.12,0.72,0.46,-0.49,0.34,-0.99,-27.09,-27.24,-10.15,
56483.9,-0.22,0.66,0.51,-0.54,0.68,-1.13,-26.09,-28.94,-10.86,
56484.0,-0.32,0.58,0.56,-0.55,1.27,-1.42,-24.47,-28.84,-13.17,
56484.1,-0.73,0.40,0.47,-0.15,1.55,-1.36,-22.99,-28.61,-17.52,
56484.2,-0.89,0.36,0.51,-0.22,0.41,-1.05,-23.84,-30.04,-21.69,
56484.3,-0.85,0.38,0.49,-0.19,0.51,-0.64,-24.72,-30.72,-26.95,
56484.4,-0.87,0.31,0.49,-0.09,0.11,-0.45,-28.29,-34.94,-35.46,
56484.5,-0.86,0.28,0.46,-0.02,0.31,-0.31,-27.50,-37.12,-39.63,
56484.6,-0.83,0.20,0.64,-0.01,0.01,-0.28,-29.15,-38.19,-44.34,
56484.7,-0.92,0.29,0.30,0.10,-0.24,-0.09,-26.02,-41.37,-47.74,
56484.8,-0.90,0.27,0.42,0.15,0.22,0.24,-25.55,-43.15,-46.18,
56484.9,-0.95,0.24,0.41,0.12,-0.36,0.39,-27.33,-41.44,-40.61,
56485.0,-0.83,0.31,0.45,0.23,-0.98,0.75,-29.09,-38.73,-32.57,
56485.1,-0.71,0.41,0.48,0.11,-1.07,0.96,-28.97,-37.68,-25.74,
56485.2,-0.48,0.50,0.54,0.12,-1.97,1.02,-26.62,-36.27,-18.45,
56485.3,-0.39,0.43,0.54,-0.24,-1.59,1.18,-28.63,-33.15,-14.61,
56485.4,-0.16,0.40,0.62,-0.82,-0.82,1.62,-30.34,-31.52,-13.00,
56485.5,0.13,0.32,0.80,-1.19,-0.75,1.65,-35.28,-23.85,-16.48,
56485.6,0.19,0.21,0.85,-1.02,0.19,1.39,-38.73,-17.32,-15.18,
56485.7,0.19,0.13,0.97,-0.93,0.57,1.04,-38.63,-11.28,-18.77,
56485.8,0.08,0.10,1.07,-0.63,0.86,0.47,-38.94,-9.08,-22.49,
56485.9,-0.01,0.07,0.94,-0.27,0.47,0.30,-37.70,-5.34,-25.23,
56486.0,-0.09,-0.11,0.99,-0.52,-0.14,0.42,-34.64,-4.30,-28.58,
56486.1,-0.11,-0.07,0.93,-0.32,0.35,0.35,-35.13,-2.77,-28.75,
56486.2,-0.07,0.02,0.99,-0.19,-0.19,-0.03,-35.31,0.48,-28.25,
56486.3,-0.08,-0.07,0.95,-0.01,-0.27,-0.09,-35.87,0.17,-28.40,
56486.4,-0.07,-0.05,0.95,0.03,-0.02,-0.07,-36.50,-0.38,-27.41,
56486.5,-0.06,-0.03,0.91,0.12,-0.09,-0.01,-36.67,-1.96,-28.80,
56486.6,-0.06,-0.03,0.91,0.04,-0.06,0.05,-37.23,-0.94,-27.55,
56486.7,-0.06,-0.02,0.93,0.03,0.01,0.05,-37.19,-0.72,-27.75,
56486.8,-0.08,-0.02,0.90,0.06,0.08,-0.00,-36.34,-1.50,-28.32,
56486.9,-0.08,-0.01,0.94,0.03,0.03,0.02,-35.99,-0.55,-26.24,
56487.0,-0.11,-0.04,0.89,0.00,0.09,0.09,-36.29,-1.19,-27.39,
56487.1,-0.07,-0.03,0.94,-0.05,0.01,0.05,-35.99,-1.23,-27.24,
56487.2,-0.07,-0.02,0.93,0.01,0.01,0.07,-35.48,-0.72,-28.08,
56487.3,-0.06,-0.04,0.93,-0.00,0.00,0.03,-36.05,-0.72,-27.86,
56487.4,-0.09,-0.03,0.93,0.02,0.06,0.01,-36.67,-0.21,-27.24,
56487.5,-0.12,-0.04,0.91,0.01,0.04,0.03,-36.85,-1.75,-28.42,
56487.6,-0.10,-0.03,0.92,0.01,0.00,0.07,-34.64,0.14,-27.94,
56487.7,-0.07,-0.04,0.91,-0.03,-0.00,0.10,-38.04,1.50,-27.91,
56487.8,-0.07,-0.04,0.94,0.00,0.04,0.05,-34.96,1.24,-27.91,
56487.9,-0.07,-0.04,0.94,0.02,0.03,0.04,-36.16,1.33,-28.75,
56488.0,-0.10,-0.01,0.90,-0.01,0.07,0.11,-35.99,-0.21,-27.91,
56488.1,-0.12,-0.06,0.92,-0.10,0.09,0.10,-37.03,1.06,-28.70,
56488.2,-0.10,-0.06,0.94,-0.07,-0.01,0.09,-35.57,0.93,-30.15,
56488.3,-0.11,-0.07,0.93,-0.04,0.05,0.05,-35.52,2.23,-29.00,
56488.4,-0.11,-0.06,0.91,-0.00,-0.00,-0.02,-35.09,2.51,-29.76,
56488.5,-0.07,-0.06,0.97,0.04,-0.03,-0.05,-35.99,2.53,-29.93,
56488.6,-0.02,-0.03,0.97,0.20,-0.01,-0.28,-35.83,1.99,-28.88,
56488.7,0.18,-0.01,1.06,0.34,-0.34,-0.92,-35.65,1.16,-30.26,
56488.8,0.19,-0.12,1.06,0.64,-0.88,-1.96,-37.16,-7.84,-25.07,
56488.9,0.08,-0.05,0.95,0.84,-0.06,-2.41,-37.69,-14.14,-22.12,
56489.0,-0.14,0.08,0.86,0.89,0.35,-2.08,-34.45,-22.28,-18.70,
56489.1,-0.13,0.09,0.87,0.60,-0.36,-1.99,-33.32,-30.85,-16.65,
56489.2,-0.22,0.28,0.79,0.62,1.00,-1.30,-31.20,-36.48,-14.51,
56489.3,-0.34,0.32,0.84,0.31,0.50,-0.95,-30.35,-42.13,-12.67,
56489.4,-0.29,0.34,0.80,0.12,0.12,-0.40,-30.51,-44.90,-12.24,
56489.5,-0.42,0.28,0.75,0.00,1.07,-0.08,-31.88,-44.01,-12.83,
56489.6,-0.51,0.27,0.81,-0.10,0.98,0.25,-33.20,-43.00,-17.74,
56489.7,-0.37,0.30,0.90,0.07,-0.13,-0.01,-33.25,-39.56,-20.88,
56489.8,-0.71,0.31,0.85,0.27,-0.62,0.54,-32.88,-38.99,-21.92,
56489.9,-0.53,0.50,0.84,0.86,-0.79,1.08,-32.06,-36.61,-16.91,
56490.0,-0.36,0.57,0.71,0.95,-0.67,1.26,-29.49,-33.74,-9.14,
56490.1,-0.19,0.62,0.57,0.85,-0.86,1.22,-27.93,-30.82,-3.56,
56490.2,-0.04,0.64,0.53,0.73,-1.11,1.07,-27.57,-29.59,-1.97,
56490.3,0.09,0.69,0.52,0.76,-0.59,0.93,-27.78,-27.93,4.60,
56490.4,0.17,0.73,0.37,0.74,-0.52,0.79,-29.49,-25.53,7.94,
56490.5,0.39,0.78,0.34,0.51,-0.77,0.60,-32.23,-24.16,8.62,
56490.6,0.36,0.81,0.29,0.36,-0.04,0.32,-32.00,-22.67,10.97,
56490.7,0.36,0.79,0.23,0.11,0.05,0.04,-31.09,-21.97,13.02,
56490.8,0.34,0.80,0.29,0.02,0.13,-0.03,-33.25,-21.77,13.31,
56490.9,0.38,0.81,0.29,-0.24,0.14,-0.19,-32.39,-21.30,12.77,
56491.0,0.35,0.77,0.30,-0.56,0.41,-0.49,-31.20,-24.84,10.96,
56491.1,0.25,0.73,0.35,-0.88,0.63,-0.83,-30.69,-25.36,8.11,
56491.2,0.12,0.64,0.46,-1.01,1.12,-0.98,-29.68,-27.65,4.71,
56491.3,-0.15,0.56,0.61,-1.13,2.15,-1.45,-27.78,-29.98,-2.78,
56491.4,-0.39,0.53,0.70,-0.92,1.67,-1.41,-27.72,-31.72,-10.17,
56491.5,-0.72,0.39,0.69,-0.71,1.67,-1.28,-28.17,-32.90,-19.08,
56491.6,-0.71,0.37,0.72,-0.34,-0.45,-0.64,-28.63,-34.60,-25.74,
56491.7,-0.65,0.34,0.70,-0.28,0.02,-0.43,-29.44,-36.24,-27.87,
56491.8,-0.71,0.26,0.60,0.13,-0.36,-0.23,-31.03,-36.99,-28.75,
56491.9,-0.82,0.11,0.70,-0.21,-0.56,0.02,-31.88,-38.12,-27.24,
56492.0,-0.55,0.23,0.76,0.41,-1.95,0.58,-31.20,-36.14,-22.22,
56492.1,-0.30,0.41,0.84,0.40,-1.22,1.02,-32.05,-36.99,-14.34,
56492.2,-0.35,0.43,0.65,0.22,0.07,1.38,-30.70,-35.16,-11.88,
56492.3,-0.15,0.41,0.61,-0.43,0.07,1.77,-31.71,-32.89,-15.68,
56492.4,-0.04,0.35,0.71,-0.79,-0.02,1.88,-34.40,-25.23,-18.85,
56492.5,0.16,0.23,0.87,-0.90,0.38,1.59,-36.06,-18.29,-19.89,
56492.6,0.12,0.16,0.91,-0.90,0.73,1.09,-37.22,-9.94,-24.74,
56492.7,-0.07,0.07,0.98,-0.74,0.30,0.78,-36.16,-4.14,-27.75,
56492.8,-0.05,0.05,0.96,-0.41,0.29,0.53,-36.85,-0.04,-28.92,
56492.9,-0.05,0.05,0.97,-0.22,0.37,0.26,-36.16,2.70,-29.09,
56493.0,-0.13,0.01,0.97,-0.05,0.34,0.04,-33.99,3.56,-29.87,
56493.1,-0.17,0.02,0.96,-0.07,0.27,0.13,-34.66,4.38,-31.72,
56493.2,-0.18,0.03,0.91,-0.09,0.16,0.14,-33.34,3.78,-32.49,
56493.3,-0.18,0.02,0.91,-0.02,0.05,0.03,-32.60,5.16,-33.44,
56493.4,-0.21,0.02,0.90,0.01,0.06,0.01,-33.25,5.95,-32.61,
56493.5,-0.21,0.00,0.91,-0.00,0.04,0.00,-31.68,5.40,-33.30,
56493.6,-0.20,0.02,0.91,0.01,-0.01,-0.02,-31.88,4.93,-31.60,
56493.7,-0.21,0.01,0.92,0.03,-0.02,-0.02,-31.54,4.93,-33.28,
56493.8,-0.21,0.02,0.90,0.05,0.00,-0.01,-32.89,5.02,-34.04,
56493.9,-0.22,0.03,0.90,0.03,0.03,0.02,-30.86,5.27,-33.28,
56494.0,-0.21,0.01,0.92,0.03,-0.06,0.02,-31.28,3.89,-33.07,
56494.1,-0.21,0.01,0.90,0.03,-0.08,0.04,-30.17,4.58,-34.28,
56494.2,-0.21,0.03,0.90,0.01,0.02,0.01,-31.23,4.90,-34.28,
56494.3,-0.21,0.03,0.90,0.00,0.06,0.01,-31.33,4.37,-33.15,
56494.4,-0.20,0.02,0.90,0.01,0.00,0.02,-31.88,5.61,-33.28,
56494.5,-0.23,0.02,0.91,-0.01,0.06,0.03,-31.91,5.10,-32.97,
56494.6,-0.20,0.03,0.89,0.04,0.03,-0.02,-31.37,4.41,-34.45,
56494.7,-0.24,-0.00,0.91,0.03,-0.04,-0.09,-31.32,5.04,-33.10,
56494.8,-0.23,0.04,0.91,0.00,0.06,-0.03,-32.21,4.51,-32.23,
56494.9,-0.24,0.02,0.91,-0.03,0.15,0.07,-31.03,4.41,-33.11,
56495.0,-0.23,0.01,0.91,0.06,-0.01,-0.01,-31.58,4.39,-34.42,
56495.1,-0.22,0.01,0.90,0.06,-0.01,-0.06,-30.33,5.98,-34.40,
56495.2,-0.20,0.01,0.92,0.06,-0.06,-0.10,-31.88,5.27,-32.94,
56495.3,-0.24,0.04,0.89,0.11,-0.01,-0.16,-31.88,2.87,-33.28,
56495.4,-0.24,0.02,0.88,0.07,-0.01,-0.08,-32.91,0.48,-34.28,
56495.5,-0.23,0.04,0.90,0.03,0.01,-0.06,-31.41,2.68,-33.59,
56495.6,-0.23,0.02,0.91,-0.01,-0.04,-0.01,-32.07,1.49,-34.47,
56495.7,-0.10,0.00,0.96,-0.01,-0.34,-0.02,-32.91,1.16,-34.28,
56495.8,0.03,0.02,1.06,0.29,-0.99,-0.52,-32.64,1.51,-32.55,
56495.9,0.12,0.03,0.99,0.35,-1.07,-1.07,-35.65,-0.21,-28.58,
56496.0,0.17,0.04,0.94,0.47,-0.37,-1.66,-39.07,-6.37,-24.23,
56496.1,-0.10,0.02,0.85,0.66,-0.11,-2.02,-37.62,-12.92,-21.61,
56496.2,-0.12,0.12,0.83,1.00,0.49,-1.83,-37.02,-21.42,-18.86,
56496.3,-0.21,0.17,0.80,0.73,0.83,-1.88,-33.53,-27.50,-16.92,
56496.4,-0.43,0.25,0.73,0.51,1.05,-1.62,-32.48,-33.99,-16.25,
56496.5,-0.56,0.37,0.73,0.05,0.87,-0.77,-30.34,-38.36,-20.37,
56496.6,-0.57,0.34,0.65,-0.11,0.97,-0.21,-31.24,-39.35,-23.76,
56496.7,-0.68,0.20,0.71,-0.04,1.39,0.05,-31.71,-40.07,-28.08,
56496.8,-0.75,0.25,0.52,-0.19,1.21,0.08,-29.79,-37.91,-35.23,
56496.9,-0.71,0.24,0.76,-0.09,0.29,0.18,-31.03,-35.97,-37.47,
56497.0,-0.90,0.21,0.56,0.02,0.05,0.31,-28.97,-36.65,-40.48,
56497.1,-0.84,0.31,0.67,0.24,-0.54,0.60,-28.57,-34.44,-35.73,
56497.2,-0.72,0.41,0.69,0.61,-1.07,1.13,-31.33,-33.01,-29.25,
56497.3,-0.49,0.54,0.66,0.81,-1.22,1.43,-30.51,-31.69,-17.86,
56497.4,-0.35,0.59,0.53,0.82,-0.66,1.60,-27.10,-29.97,-11.78,
56497.5,-0.12,0.61,0.49,0.83,-1.66,1.53,-29.15,-25.53,-7.47,
56497.6,0.21,0.70,0.35,0.76,-0.82,1.22,-29.15,-25.53,-1.44,
56497.7,0.34,0.73,0.35,0.32,-0.63,0.48,-31.88,-23.68,2.08,
56497.8,0.20,0.82,0.45,-0.00,-0.39,0.24,-33.25,-22.11,3.59,
56497.9,0.37,0.78,0.38,0.01,-0.08,0.31,-34.40,-21.30,5.58,
56498.0,0.35,0.73,0.36,-0.08,-0.28,0.03,-32.53,-20.57,5.36,
56498.1,0.35,0.73,0.37,-0.36,0.39,-0.45,-33.75,-20.63,2.93,
56498.2,0.23,0.68,0.41,-0.65,0.56,-0.84,-32.39,-22.05,2.62,
56498.3,0.05,0.65,0.53,-0.75,0.98,-0.86,-31.03,-23.99,0.07,
56498.4,-0.05,0.61,0.60,-0.88,1.01,-1.14,-29.96,-26.85,-5.73,
56498.5,-0.16,0.52,0.53,-0.80,1.77,-1.55,-27.44,-27.24,-9.14,
56498.6,-0.55,0.37,0.69,-0.64,2.37,-1.69,-26.24,-26.73,-14.68,
56498.7,-0.68,0.31,0.80,-0.34,1.91,-1.13,-28.12,-28.02,-24.57,
56498.8,-0.92,0.34,0.52,-0.16,0.41,-0.44,-27.26,-29.46,-34.11,
56498.9,-0.92,0.26,0.39,-0.10,0.67,-0.25,-25.67,-29.92,-41.27,
56499.0,-0.85,0.23,0.49,-0.16,0.11,-0.22,-25.90,-29.81,-42.49,
56499.1,-0.87,0.29,0.43,0.03,0.12,0.23,-26.58,-28.44,-47.52,
56499.2,-0.96,0.18,0.60,0.08,-0.94,0.22,-28.20,-31.12,-45.12,
56499.3,-0.92,0.21,0.54,0.38,-1.08,0.83,-30.69,-31.86,-38.81,
56499.4,-0.81,0.34,0.61,0.38,-0.99,1.24,-30.30,-32.82,-29.15,
56499.5,-0.51,0.44,0.56,0.04,-1.49,0.99,-30.24,-30.39,-23.55,
56499.6,-0.33,0.46,0.63,-0.15,-1.09,1.24,-30.36,-29.72,-15.60,
56499.7,-0.22,0.47,0.59,-0.49,-0.16,1.37,-29.83,-26.21,-15.51,
56499.8,-0.17,0.35,0.61,-1.15,-0.51,1.54,-32.05,-22.62,-18.36,
56499.9,0.05,0.13,0.90,-1.22,-0.30,1.52,-36.67,-15.26,-20.21,
56500.0,0.12,0.05,1.04,-0.96,0.28,1.16,-37.94,-8.14,-22.18,
56500.1,0.05,0.03,1.03,-0.43,0.88,0.64,-38.73,-1.58,-24.90,
56500.2,0.01,-0.00,0.93,-0.45,0.20,0.46,-35.82,-0.71,-28.71,
56500.3,-0.00,-0.03,1.02,-0.30,0.29,0.23,-35.99,3.22,-27.24,
56500.4,-0.06,-0.01,0.97,-0.01,0.15,-0.06,-35.65,3.56,-29.25,
56500.5,-0.11,0.01,0.94,0.05,0.23,-0.12,-35.76,3.10,-30.04,
56500.6,-0.13,0.02,0.94,0.08,0.19,-0.07,-33.59,2.53,-30.26,
56500.7,-0.14,0.02,0.91,0.01,0.02,-0.00,-36.33,2.19,-31.94,
56500.8,-0.16,0.02,0.93,-0.02,0.02,0.11,-34.85,2.80,-31.15,
56500.9,-0.15,-0.00,0.92,0.01,0.00,0.08,-33.77,3.39,-32.10,
56501.0,-0.14,-0.01,0.92,0.13,0.03,0.06,-34.52,2.19,-31.16,
56501.1,-0.16,0.02,0.93,0.04,0.01,0.03,-33.25,3.90,-31.94,
56501.2,-0.17,0.01,0.91,0.06,0.10,0.01,-35.43,3.06,-31.72,
56501.3,-0.17,0.02,0.92,0.00,0.03,-0.00,-33.89,3.30,-32.27,
56501.4,-0.18,0.03,0.93,0.00,0.02,-0.00,-33.42,2.36,-31.77,
56501.5,-0.18,0.03,0.89,-0.01,0.06,0.02,-34.01,3.54,-31.51,
56501.6,-0.18,0.02,0.90,0.01,0.09,-0.03,-32.91,1.85,-31.27,
56501.7,-0.16,0.03,0.91,-0.00,0.07,-0.01,-32.57,2.19,-31.27,
56501.8,-0.23,0.01,0.91,0.00,0.27,-0.04,-32.41,2.02,-31.79,
56501.9,-0.22,0.02,0.92,-0.02,0.08,0.00,-32.57,2.53,-33.61,
56502.0,-0.20,0.02,0.91,-0.02,-0.01,0.03,-32.36,2.49,-33.12,
56502.1,-0.21,0.01,0.92,-0.00,-0.09,0.03,-31.54,3.10,-33.38,
56502.2,-0.20,0.01,0.92,0.02,-0.12,0.03,-31.54,2.19,-32.94,
56502.3,-0.21,0.02,0.91,0.04,-0.06,0.03,-33.25,2.87,-31.94,
56502.4,-0.16,0.02,0.91,0.01,-0.17,0.02,-32.91,2.53,-31.94,
56502.5,-0.17,0.01,0.91,-0.02,-0.11,0.01,-33.24,2.62,-32.85,
56502.6,-0.16,0.02,0.90,-0.04,-0.06,0.01,-34.03,2.74,-31.21,
56502.7,-0.17,0.02,0.89,0.03,0.02,-0.01,-33.59,2.87,-31.60,
56502.8,-0.17,0.02,0.92,0.01,0.03,0.02,-32.99,2.99,-31.79,
56502.9,-0.14,0.04,0.92,0.06,-0.01,0.01,-33.36,3.49,-30.49,
56503.0,-0.19,0.01,0.93,0.09,0.02,0.01,-34.11,4.07,-31.10,
56503.1,-0.17,0.02,0.90,0.03,-0.02,0.06,-34.00,3.09,-32.57,
56503.2,-0.15,0.01,0.92,-0.03,-0.05,0.03,-33.94,2.87,-31.27,
56503.3,-0.13,0.01,0.91,-0.05,-0.03,-0.00,-34.11,2.90,-32.02,
56503.4,-0.06,0.02,0.96,-0.02,-0.11,-0.16,-34.45,3.72,-31.42,
56503.5,0.06,0.03,1.02,0.22,-0.38,-0.68,-35.48,0.99,-29.42,
56503.6,0.07,-0.00,0.98,0.47,-0.32,-1.39,-37.32,-2.34,-29.04,
56503.7,-0.01,-0.01,1.03,0.69,-0.55,-1.80,-35.48,-7.91,-26.41,
56503.8,-0.08,0.06,1.09,1.13,0.07,-2.15,-35.22,-15.87,-24.25,
56503.9,-0.21,0.19,0.78,1.59,0.45,-1.81,-31.70,-23.32,-23.70,
56504.0,-0.21,0.37,0.68,1.23,0.41,-1.60,-29.66,-32.54,-19.70,
56504.1,-0.41,0.40,0.59,0.43,1.46,-1.17,-27.35,-37.25,-15.68,
56504.2,-0.70,0.27,0.49,0.10,3.28,-0.47,-25.90,-39.73,-21.04,
56504.3,-1.01,0.29,0.25,0.09,2.08,-0.29,-22.13,-39.05,-30.43,
56504.4,-0.93,0.33,0.46,0.06,-0.57,0.05,-21.50,-40.74,-36.59,
56504.5,-0.88,0.43,0.43,-0.01,-0.75,0.20,-22.30,-40.49,-35.36,
56504.6,-0.93,0.35,0.43,-0.10,-0.40,0.40,-24.31,-39.03,-35.00,
56504.7,-0.86,0.42,0.59,0.28,-0.66,0.88,-27.61,-34.60,-29.76,
56504.8,-0.81,0.50,0.56,0.48,-0.85,1.34,-27.95,-32.20,-21.71,
56504.9,-0.55,0.58,0.48,0.62,-0.92,1.74,-25.34,-31.24,-15.84,
56505.0,-0.33,0.59,0.46,0.64,-1.52,1.87,-24.98,-28.75,-9.76,
56505.1,0.02,0.63,0.36,0.66,-1.22,1.58,-28.92,-27.42,-3.36,
56505.2,0.15,0.69,0.34,0.43,-0.41,1.05,-31.58,-24.90,-1.38,
56505.3,0.12,0.77,0.24,0.15,-0.25,0.61,-33.25,-22.79,-0.10,
56505.4,0.41,0.93,0.40,0.02,0.09,0.17,-35.19,-21.29,2.56,
56505.5,0.28,0.87,0.39,0.08,-0.08,0.07,-34.98,-21.41,3.91,
56505.6,0.28,0.83,0.34,0.12,-0.00,0.11,-34.96,-20.40,4.26,
56505.7,0.39,0.82,0.29,-0.11,-0.03,-0.24,-35.49,-20.83,3.09,
56505.8,0.37,0.77,0.26,-0.56,0.53,-0.85,-35.31,-21.42,3.25,
56505.9,0.18,0.72,0.37,-0.93,1.18,-1.36,-33.55,-25.75,-0.10,
56506.0,-0.21,0.64,0.53,-1.09,1.03,-1.48,-29.49,-27.93,-4.79,
56506.1,-0.31,0.42,0.50,-0.88,0.97,-1.70,-26.99,-27.98,-8.52,
56506.2,-0.57,0.37,0.65,-0.86,1.00,-1.74,-26.07,-28.61,-13.78,
56506.3,-1.04,0.29,0.63,-0.53,1.72,-1.31,-30.34,-29.81,-19.70,
56506.4,-0.82,0.33,0.63,-0.29,0.76,-0.53,-33.87,-32.30,-27.69,
56506.5,-0.85,0.33,0.63,0.27,0.58,0.02,-35.82,-32.89,-35.12,
56506.6,-0.77,0.26,0.59,-0.14,-0.24,-0.13,-34.73,-35.45,-35.46,
56506.7,-0.86,0.08,0.67,-0.08,-0.14,0.04,-33.60,-33.82,-34.99,
56506.8,-0.78,0.11,0.62,0.24,-1.05,0.53,-33.08,-35.62,-31.10,
56506.9,-0.55,0.31,0.54,0.27,-1.44,0.77,-31.49,-37.21,-23.90,
56507.0,-0.39,0.42,0.61,-0.33,-1.48,0.98,-30.89,-37.99,-20.01,
56507.1,-0.32,0.36,0.71,-0.98,-0.58,1.68,-30.34,-34.60,-18.70,
56507.2,-0.11,0.22,0.86,-1.17,-1.03,1.97,-33.42,-26.39,-20.71,
56507.3,0.00,0.09,0.90,-1.13,0.42,2.04,-35.13,-18.52,-23.05,
56507.4,0.10,0.03,1.02,-1.02,0.06,1.65,-37.58,-9.47,-26.46,
56507.5,-0.01,-0.06,1.03,-0.61,0.48,0.83,-36.37,-3.81,-28.09,
56507.6,-0.09,-0.07,1.02,-0.12,0.32,0.26,-35.31,-2.26,-29.93,
56507.7,-0.13,-0.05,0.95,-0.03,0.20,0.20,-34.75,0.45,-31.16,
56507.8,-0.14,-0.03,0.93,-0.07,0.05,0.13,-32.94,1.15,-31.27,
56508.0,-0.21,-0.03,0.90,0.05,0.02,0.01,-33.94,2.19,-31.60,
56508.1,-0.18,-0.02,0.91,0.05,-0.05,0.02,-33.42,2.02,-31.43,
56508.2,-0.20,-0.03,0.91,0.06,0.02,0.04,-34.24,0.68,-31.18,
56508.3,-0.17,-0.02,0.91,0.02,-0.02,0.05,-33.42,0.69,-31.12,
56508.4,-0.16,-0.02,0.93,-0.02,-0.03,0.03,-34.11,0.99,-33.44,
56508.5,-0.17,-0.01,0.92,0.03,0.01,-0.03,-32.70,2.27,-32.40,
56508.6,-0.20,-0.02,0.92,0.05,0.03,0.04,-33.08,3.04,-32.10,
56508.7,-0.18,-0.02,0.92,0.05,-0.01,0.07,-33.63,2.15,-32.42,
56508.8,-0.17,-0.02,0.89,0.04,0.02,0.06,-34.62,2.19,-31.94,
56508.9,-0.19,-0.02,0.90,0.02,0.07,-0.01,-33.94,2.19,-30.93,
56509.0,-0.18,-0.02,0.92,0.00,0.03,0.02,-34.63,3.66,-31.69,
56509.1,-0.16,-0.01,0.94,0.02,-0.01,-0.01,-33.25,2.53,-32.61,
56509.2,-0.17,-0.00,0.92,-0.00,0.01,0.01,-32.05,4.07,-31.77,
56509.3,-0.19,0.01,0.92,-0.02,-0.04,0.03,-34.26,2.33,-32.38,
56509.4,-0.20,0.01,0.91,-0.00,-0.04,0.08,-32.63,3.19,-33.55,
56509.5,-0.18,-0.01,0.91,-0.00,-0.06,0.12,-33.11,2.83,-33.17,
56509.6,-0.16,-0.01,0.91,0.01,-0.06,0.08,-34.45,3.73,-31.10,
56509.7,-0.17,-0.03,0.92,0.02,-0.06,0.06,-33.25,4.24,-31.94,
56509.8,-0.17,-0.01,0.91,0.02,-0.05,0.05,-34.59,3.12,-31.57,
56509.9,-0.15,-0.03,0.91,0.00,-0.03,0.03,-34.06,3.34,-31.96,
56510.0,-0.15,-0.01,0.92,-0.01,-0.03,0.02,-33.24,4.28,-31.25,
56510.1,-0.14,-0.01,0.92,-0.00,-0.02,0.04,-34.51,4.09,-30.83,
56510.2,-0.13,-0.01,0.90,-0.01,-0.02,0.03,-34.11,4.41,-32.10,
56510.3,-0.08,-0.01,0.95,0.04,-0.06,-0.08,-34.97,4.09,-31.07,
56510.4,0.03,-0.02,0.97,0.12,-0.23,-0.43,-34.62,5.61,-29.93,
56510.5,0.14,-0.06,1.02,0.28,-0.33,-1.38,-34.62,0.82,-29.93,
56510.6,0.02,0.01,1.06,0.75,0.05,-1.87,-36.13,-6.59,-27.53,
56510.7,-0.11,0.10,1.03,1.23,-0.04,-1.93,-35.82,-14.07,-25.40,
56510.8,-0.28,0.05,0.91,1.64,0.32,-2.01,-32.33,-23.40,-22.78,
56510.9,-0.35,0.34,0.66,1.67,0.47,-1.96,-30.17,-31.00,-18.19,
56511.0,-0.43,0.35,0.60,0.65,0.82,-0.95,-26.92,-33.91,-15.68,
56511.1,-0.28,0.35,0.65,-0.23,0.54,-0.89,-26.32,-37.81,-15.27,
56511.2,-0.67,0.17,0.66,-0.01,2.28,-0.45,-27.78,-37.51,-18.19,
56511.3,-0.83,0.24,0.48,0.08,2.58,-0.34,-27.35,-36.73,-29.47,
56511.4,-1.07,0.28,0.49,0.01,0.81,-0.19,-24.50,-39.62,-38.96,
56511.5,-0.91,0.42,0.50,0.08,-0.34,0.45,-25.73,-40.58,-39.76,
56511.6,-1.00,0.33,0.61,0.11,-0.46,0.69,-28.62,-38.08,-34.24,
56511.7,-0.95,0.42,0.57,0.51,-0.51,1.44,-29.66,-35.28,-27.41,
56511.8,-0.70,0.54,0.51,0.69,-0.88,1.98,-25.59,-31.90,-18.54,
56511.9,-0.39,0.61,0.41,0.67,-1.14,2.11,-23.83,-29.23,-9.80,
56512.0,-0.10,0.67,0.37,0.61,-1.24,1.94,-27.44,-28.61,-6.46,
56512.1,0.06,0.70,0.35,0.45,-0.68,1.45,-29.49,-25.87,-2.44,
56512.2,0.22,0.80,0.35,0.36,-0.41,1.02,-31.54,-23.13,0.57,
56512.3,0.35,0.79,0.28,0.19,-0.53,0.64,-33.25,-20.05,2.25,
56512.4,0.44,0.82,0.28,-0.02,-0.22,0.24,-33.97,-18.04,3.15,
56512.5,0.36,0.84,0.30,-0.08,-0.01,-0.10,-35.13,-18.52,2.75,
56512.6,0.37,0.82,0.30,-0.22,-0.04,-0.37,-35.03,-19.60,3.15,
56512.7,0.33,0.79,0.30,-0.47,0.33,-0.74,-33.26,-21.78,2.91,
56512.8,0.23,0.73,0.29,-0.86,0.54,-1.12,-31.03,-21.94,1.41,
56512.9,0.04,0.56,0.40,-1.26,1.00,-1.56,-29.23,-26.65,-2.70,
56513.0,-0.30,0.49,0.62,-1.27,1.15,-1.92,-27.44,-26.56,-7.80,
56513.1,-0.46,0.36,0.72,-1.03,1.39,-2.05,-27.32,-28.89,-13.78,
56513.2,-0.83,0.28,0.78,-0.33,0.35,-1.56,-31.56,-28.53,-23.63,
56513.3,-0.78,0.44,0.70,0.13,1.53,-0.25,-38.56,-32.54,-35.46,
56513.4,-0.90,0.17,0.54,-0.14,-0.08,-0.29,-36.90,-36.57,-42.16,
56513.5,-0.93,0.16,0.53,0.04,-0.30,0.17,-37.02,-34.77,-42.66,
56513.6,-0.87,0.22,0.62,0.11,-0.77,0.62,-35.65,-36.14,-36.29,
56513.7,-0.66,0.29,0.51,0.08,-3.22,0.95,-33.59,-34.08,-25.90,
56513.8,-0.03,0.34,0.89,0.28,-3.47,1.09,-34.11,-33.91,-12.66,
56513.9,-0.07,0.34,0.64,0.15,-1.03,0.98,-33.18,-32.69,-5.34,
56514.0,-0.04,0.33,0.65,-0.25,0.45,1.25,-33.94,-31.69,-3.78,
56514.1,0.05,0.27,0.76,-0.74,0.18,1.52,-35.31,-28.95,-7.80,
56514.2,0.05,0.05,0.83,-1.23,0.20,1.72,-37.60,-22.78,-11.65,
56514.3,0.31,-0.00,1.03,-1.22,0.66,1.82,-38.33,-14.92,-18.15,
56514.4,0.08,-0.12,1.07,-0.68,1.20,1.04,-38.83,-7.44,-23.54,
56514.5,0.00,-0.16,1.00,-0.57,0.75,0.98,-37.29,-2.74,-26.28,
56514.6,0.02,-0.18,0.99,-0.22,0.34,0.37,-37.70,0.06,-26.94,
56514.7,-0.08,-0.15,0.96,0.01,0.06,0.17,-35.94,2.15,-28.74,
56514.8,-0.11,-0.14,0.90,0.05,0.03,0.15,-34.96,2.87,-28.43,
56514.9,-0.09,-0.14,0.91,0.00,0.09,0.14,-35.55,3.78,-28.78,
56515.0,-0.11,-0.14,0.92,-0.02,0.04,0.12,-34.90,4.30,-29.19,
56515.1,-0.11,-0.15,0.92,0.05,0.02,0.12,-34.45,4.41,-30.09,
56515.2,-0.12,-0.15,0.90,0.14,0.12,0.09,-36.74,5.10,-29.55,
56515.3,-0.13,-0.12,0.90,0.05,0.05,-0.00,-35.48,4.75,-31.10,
56515.4,-0.12,-0.14,0.91,0.07,-0.04,-0.02,-35.48,4.41,-29.09,
56515.5,-0.12,-0.12,0.92,0.04,-0.10,-0.01,-34.50,3.86,-28.94,
56515.6,-0.13,-0.11,0.92,0.06,0.00,0.05,-35.31,3.22,-31.60,
56515.7,-0.12,-0.11,0.91,0.02,-0.03,0.06,-34.86,4.00,-29.26,
56515.8,-0.11,-0.11,0.92,0.02,0.00,0.06,-36.33,4.58,-28.58,
56515.9,-0.11,-0.12,0.90,0.07,0.07,-0.07,-36.12,4.40,-29.46,
56516.0,-0.12,-0.11,0.91,0.05,-0.02,-0.05,-35.13,3.77,-30.71,
56516.1,-0.13,-0.12,0.91,0.06,0.01,-0.02,-35.48,3.39,-30.09,
56516.2,-0.14,-0.10,0.91,0.03,0.07,-0.00,-35.78,3.71,-30.31,
56516.3,-0.12,-0.09,0.92,0.01,0.05,0.01,-34.95,1.66,-31.03,
56516.4,-0.12,-0.10,0.94,0.05,0.02,-0.00,-35.31,3.56,-29.93,
56516.5,-0.13,-0.11,0.92,0.05,0.03,-0.03,-35.81,2.04,-30.75,
56516.6,-0.12,-0.09,0.92,0.00,-0.00,-0.06,-35.31,3.22,-30.60,
56516.7,-0.13,-0.09,0.92,0.04,-0.05,-0.05,-35.99,2.53,-30.60,
56516.8,-0.13,-0.09,0.92,0.08,-0.02,-0.07,-36.01,2.99,-30.60,
56516.9,-0.12,-0.08,0.92,0.04,-0.08,-0.03,-36.16,2.02,-31.10,
56517.0,-0.10,-0.08,0.94,0.01,-0.12,-0.03,-34.63,0.82,-30.92,
56517.1,-0.04,-0.07,0.94,0.05,-0.12,-0.19,-35.13,0.99,-29.76,
56517.2,-0.02,-0.08,0.99,0.18,-0.27,-0.45,-35.82,0.31,-29.42,
56517.3,0.01,-0.06,0.91,0.19,-0.39,-0.66,-36.08,-2.35,-27.17,
56517.4,0.06,-0.04,0.94,0.25,-0.43,-0.81,-38.56,-5.17,-26.07,
56517.5,0.11,0.03,0.92,0.07,-0.85,-1.33,-37.72,-8.37,-24.32,
56517.6,0.25,-0.07,0.96,0.42,-0.23,-1.51,-38.56,-16.26,-17.12,
56517.7,0.04,-0.03,0.95,0.75,0.45,-1.91,-36.85,-20.23,-16.02,
56517.8,-0.02,0.06,0.88,0.92,0.75,-1.66,-32.40,-29.33,-16.59,
56517.9,-0.22,0.33,0.81,1.14,1.52,-1.27,-30.34,-35.62,-16.02,
56518.0,-0.38,0.36,0.69,0.80,1.23,-1.08,-27.26,-40.07,-15.68,
56518.1,-0.37,0.30,0.68,0.20,0.60,-0.42,-27.61,-40.76,-16.69,
56518.2,-0.51,0.24,0.75,0.16,1.04,-0.30,-28.29,-40.41,-17.69,
56518.3,-0.67,0.26,0.69,0.02,0.46,0.08,-27.78,-40.14,-21.74,
56518.4,-0.50,0.36,0.83,-0.01,-0.52,0.17,-27.09,-37.85,-21.21,
56518.5,-0.66,0.35,0.79,0.16,-0.23,0.33,-27.44,-37.51,-22.22,
56518.6,-0.62,0.42,0.81,0.65,-0.62,0.76,-28.03,-35.73,-18.16,
56518.7,-0.52,0.49,0.75,0.96,-0.75,1.21,-26.31,-34.19,-10.95,
56518.8,-0.34,0.58,0.62,1.06,-0.94,1.48,-25.04,-32.03,-6.80,
56518.9,-0.12,0.65,0.52,1.07,-0.85,1.48,-26.35,-30.05,-1.36,
56519.0,0.09,0.71,0.36,1.00,-0.34,1.37,-27.78,-28.95,4.26,
56519.1,0.23,0.71,0.31,0.77,-0.38,1.16,-29.42,-25.60,6.27,
56519.2,0.39,0.74,0.22,0.41,-0.06,0.69,-33.04,-21.89,8.18,
56519.3,0.47,0.86,0.25,0.32,-0.58,0.42,-34.26,-20.05,9.21,
56519.4,0.45,0.83,0.21,0.12,-0.02,0.02,-33.03,-19.37,11.06,
56519.5,0.37,0.82,0.23,-0.05,0.13,-0.18,-33.59,-16.97,10.29,
56519.6,0.39,0.80,0.22,-0.31,0.01,-0.38,-33.21,-20.04,11.49,
56519.7,0.32,0.77,0.19,-0.71,0.37,-0.91,-32.74,-22.62,8.11,
56519.8,0.13,0.71,0.41,-0.96,0.67,-1.05,-30.51,-24.84,5.60,
56519.9,0.02,0.71,0.52,-1.01,0.69,-1.16,-28.62,-28.27,1.39,
56520.0,-0.20,0.64,0.54,-0.76,1.05,-1.37,-26.75,-28.61,-2.11,
56520.1,-0.34,0.55,0.67,-0.84,0.47,-1.27,-26.68,-31.18,-6.25,
56520.2,-0.54,0.46,0.71,-0.62,0.92,-1.04,-26.41,-32.37,-10.15,
56520.3,-0.55,0.46,0.76,-0.24,0.35,-0.68,-27.92,-36.25,-15.81,
56520.4,-0.62,0.45,0.64,-0.03,0.70,-0.50,-26.96,-39.48,-20.17,
56520.5,-0.74,0.54,0.75,0.38,-0.01,-0.37,-28.46,-41.27,-22.22,
56520.6,-0.57,0.41,0.59,-0.04,-0.34,0.05,-26.84,-41.71,-21.33,
56520.7,-0.59,0.28,0.78,-0.06,-0.22,-0.04,-26.24,-42.47,-21.38,
56520.8,-0.67,0.24,0.77,0.33,-1.01,0.32,-26.58,-40.76,-21.38,
56520.9,-0.55,0.36,0.73,0.39,-1.48,0.60,-27.61,-42.47,-14.34,
56521.0,-0.26,0.48,0.76,0.41,-0.87,0.49,-27.09,-40.24,-9.82,
56521.1,-0.35,0.51,0.60,-0.13,0.18,1.11,-27.21,-39.56,-7.35,
56521.2,-0.22,0.49,0.68,-0.57,0.12,1.44,-27.21,-38.11,-11.32,
56521.3,-0.13,0.45,0.73,-0.87,0.54,1.73,-30.17,-32.37,-11.83,
56521.4,-0.05,0.33,0.81,-0.94,0.79,1.70,-32.96,-27.56,-17.27,
56521.5,0.01,0.21,0.88,-1.28,0.38,1.69,-33.77,-18.17,-24.06,
56521.6,0.08,0.09,1.00,-1.28,0.21,1.44,-35.78,-7.92,-28.16,
56521.7,0.12,0.11,1.01,-0.70,0.19,0.71,-35.63,-2.27,-28.92,
56521.8,-0.11,0.01,0.95,-0.42,0.14,0.28,-35.48,1.33,-28.08,
56521.9,-0.06,0.00,0.95,-0.13,0.20,0.12,-35.66,3.91,-29.37,
56522.0,-0.13,0.00,0.94,-0.04,0.04,0.14,-35.66,5.21,-30.52,
56522.1,-0.10,0.00,0.90,0.04,0.07,0.10,-36.33,4.58,-29.59,
56522.2,-0.10,-0.01,0.91,-0.02,-0.04,0.02,-35.73,4.25,-30.54,
56522.3,-0.10,-0.01,0.94,-0.07,-0.06,0.09,-35.82,5.78,-29.09,
56522.4,-0.12,-0.00,0.90,-0.03,0.03,0.09,-36.05,5.76,-29.71,
56522.5,-0.10,-0.00,0.92,-0.03,-0.04,-0.01,-34.62,5.61,-30.60,
56522.6,-0.08,-0.03,0.93,0.00,-0.05,-0.08,-35.65,6.98,-29.93,
56522.7,-0.10,-0.05,0.93,-0.08,-0.08,-0.10,-34.39,5.25,-28.88,
56522.8,-0.12,-0.02,0.92,-0.05,0.02,-0.12,-34.11,5.10,-29.42,
56522.9,-0.11,-0.02,0.93,0.03,0.06,-0.13,-34.76,6.15,-28.72,
56523.0,-0.13,-0.02,0.91,0.03,0.08,-0.08,-35.35,5.50,-30.49,
56523.1,-0.14,-0.01,0.92,0.01,0.16,0.02,-35.08,3.40,-31.04,
56523.2,-0.14,-0.03,0.92,0.03,0.11,0.09,-33.49,4.39,-30.51,
56523.3,-0.14,-0.04,0.92,0.01,0.02,0.07,-34.28,5.27,-30.60,
56523.4,-0.15,-0.04,0.90,0.02,0.04,0.05,-33.78,4.58,-31.60,
56523.5,-0.15,-0.04,0.91,-0.04,0.01,0.00,-35.30,5.33,-31.59,
56523.6,-0.16,-0.03,0.93,-0.01,0.04,-0.00,-33.39,5.69,-30.85,
56523.7,-0.17,-0.04,0.92,0.01,-0.01,0.04,-33.63,4.96,-32.20,
56523.8,-0.15,-0.03,0.91,-0.01,0.01,0.05,-33.25,4.93,-31.60,
56523.9,-0.13,-0.04,0.93,-0.01,-0.05,0.02,-34.45,5.78,-31.10,
56524.0,-0.11,-0.04,0.93,0.03,-0.10,-0.07,-33.48,4.81,-32.38,
56524.1,-0.07,-0.03,0.95,0.09,0.01,-0.25,-34.11,5.10,-31.77,
56524.2,0.01,-0.03,0.98,0.15,-0.06,-0.42,-34.45,2.70,-31.10,
56524.3,0.03,-0.03,1.00,0.35,-0.22,-1.13,-34.62,-0.21,-29.93,
56524.4,-0.05,-0.01,0.95,0.73,0.03,-1.57,-34.96,-5.68,-28.92,
56524.5,-0.10,0.00,0.98,0.79,-0.24,-1.70,-33.69,-13.20,-28.46,
56524.6,-0.22,0.06,0.91,0.81,-0.20,-1.80,-33.08,-19.20,-25.74,
56524.7,-0.26,0.15,0.89,0.91,0.28,-1.48,-31.88,-24.87,-23.89,
56524.8,-0.36,0.20,0.76,0.97,0.91,-1.23,-29.21,-31.55,-23.25,
56524.9,-0.43,0.32,0.72,0.55,0.93,-1.01,-29.83,-36.48,-22.22,
56525.0,-0.53,0.34,0.65,0.29,0.77,-0.69,-26.88,-40.66,-22.24,
56525.1,-0.67,0.28,0.66,0.19,0.98,-0.11,-25.72,-43.32,-24.56,
56525.2,-0.65,0.30,0.63,0.16,1.19,0.01,-26.40,-42.91,-28.16,
56525.3,-0.76,0.26,0.56,0.18,0.86,0.00,-27.09,-45.38,-31.60,
56525.4,-0.85,0.30,0.45,0.11,0.16,0.25,-25.04,-43.66,-32.61,
56525.5,-0.77,0.33,0.56,-0.01,-0.10,0.13,-25.66,-40.05,-31.74,
56525.6,-0.89,0.33,0.65,0.14,-0.12,0.19,-26.41,-38.87,-30.26,
56525.7,-0.83,0.44,0.60,0.60,-0.79,0.84,-26.24,-37.34,-24.73,
56525.8,-0.67,0.46,0.63,0.72,-1.38,1.29,-28.40,-33.74,-16.69,
56525.9,-0.44,0.56,0.54,0.85,-1.39,1.35,-23.18,-32.17,-8.28,
56526.0,-0.26,0.62,0.48,0.98,-0.89,1.51,-24.32,-29.66,-1.93,
56526.1,-0.02,0.68,0.39,0.90,-0.36,1.38,-26.57,-29.61,0.26,
56526.2,0.11,0.73,0.34,0.75,-0.30,1.42,-28.97,-28.44,3.42,
56526.3,0.27,0.82,0.26,0.43,-0.59,1.09,-31.90,-24.02,5.13,
56526.4,0.39,0.86,0.23,0.33,-0.23,0.61,-33.69,-21.19,10.20,
56526.5,0.47,0.83,0.26,0.23,-0.01,0.30,-34.23,-20.00,10.06,
56526.6,0.39,0.80,0.17,0.20,0.16,0.12,-34.79,-19.16,10.96,
56526.7,0.42,0.80,0.15,-0.16,0.05,-0.08,-34.79,-20.23,11.13,
56526.8,0.41,0.76,0.20,-0.62,0.21,-0.51,-33.62,-19.83,11.32,
56526.9,0.35,0.79,0.28,-1.08,0.65,-0.91,-33.42,-21.94,7.78,
56527.0,0.09,0.74,0.52,-1.04,0.79,-0.99,-31.71,-24.67,2.75,
56527.1,-0.05,0.65,0.66,-1.02,0.74,-1.11,-29.58,-26.64,0.50,
56527.2,-0.16,0.60,0.60,-0.86,0.87,-1.17,-28.97,-31.18,-4.62,
56527.3,-0.36,0.52,0.67,-0.55,1.30,-1.11,-27.20,-32.20,-8.19,
56527.4,-0.44,0.52,0.69,-0.43,0.73,-0.94,-29.66,-33.23,-14.34,
56527.5,-0.56,0.45,0.72,-0.16,0.57,-0.60,-29.05,-36.10,-16.56,
56527.6,-0.69,0.39,0.76,-0.05,0.30,-0.39,-30.23,-37.46,-20.41,
56527.7,-0.57,0.46,0.71,-0.04,0.13,-0.13,-28.97,-39.05,-20.37,
56527.8,-0.62,0.40,0.65,-0.07,0.04,-0.07,-29.66,-39.73,-23.72,
56527.9,-0.57,0.39,0.66,0.01,0.02,-0.11,-30.00,-39.73,-23.39,
56528.0,-0.58,0.39,0.72,0.14,0.09,-0.15,-30.34,-40.07,-23.39,
56528.1,-0.69,0.34,0.61,0.07,0.10,-0.17,-30.53,-41.28,-24.88,
56528.2,-0.81,0.26,0.68,0.06,-1.18,0.41,-29.15,-40.59,-22.55,
56528.3,-0.55,0.27,0.76,0.57,-1.27,0.65,-28.60,-40.14,-15.89,
56528.4,-0.42,0.38,0.57,0.63,-1.38,0.64,-27.25,-40.53,-10.22,
56528.5,-0.11,0.52,0.64,0.04,-0.58,0.94,-24.18,-39.39,-5.96,
56528.6,-0.17,0.52,0.65,-0.61,0.71,1.25,-26.27,-38.67,-8.67,
56528.7,-0.14,0.43,0.76,-1.10,0.58,1.59,-28.63,-31.86,-14.68,
56528.8,-0.04,0.24,0.89,-1.50,0.59,1.85,-32.86,-23.77,-23.12,
56528.9,-0.14,0.05,0.97,-1.51,0.80,1.77,-33.71,-17.97,-26.33,
56529.0,-0.05,0.09,0.93,-0.94,0.78,1.40,-33.77,-7.22,-30.09,
56529.1,-0.22,-0.00,0.93,-0.52,1.01,0.81,-32.33,-1.79,-33.65,
56529.2,-0.23,0.03,0.97,-0.19,0.25,0.24,-28.48,2.03,-37.85,
56529.3,-0.30,0.02,0.96,0.06,0.34,-0.12,-27.09,3.56,-35.29,
56529.4,-0.35,0.05,0.88,0.15,-0.10,-0.05,-26.62,3.40,-38.88,
56529.5,-0.37,0.03,0.85,0.07,-0.10,0.02,-28.29,3.04,-38.14,
56529.6,-0.39,0.06,0.83,0.01,0.20,0.10,-27.47,1.46,-37.68,
56529.7,-0.32,0.06,0.88,-0.08,-0.11,0.17,-27.09,2.53,-37.30,
56529.8,-0.37,0.02,0.87,0.09,0.06,0.02,-27.95,2.70,-38.47,
56529.9,-0.36,0.05,0.88,0.06,-0.02,0.10,-26.19,3.61,-39.23,
56530.0,-0.36,0.05,0.86,0.03,0.01,0.06,-26.92,2.70,-38.14,
56530.1,-0.35,0.04,0.86,-0.03,0.03,0.01,-26.75,3.56,-38.97,
56530.2,-0.36,0.06,0.86,0.01,-0.12,0.01,-27.11,1.96,-39.66,
56530.3,-0.36,0.05,0.86,0.00,-0.03,-0.02,-27.44,2.58,-38.32,
56530.4,-0.34,0.06,0.86,-0.00,-0.02,0.02,-26.95,1.82,-38.44,
56530.5,-0.34,0.03,0.87,-0.03,-0.01,0.04,-27.09,4.24,-39.64,
56530.6,-0.35,0.03,0.88,-0.04,0.02,0.06,-28.05,4.68,-38.21,
56530.7,-0.34,0.04,0.87,-0.02,0.01,0.05,-27.33,4.21,-38.21,
56530.8,-0.39,0.04,0.85,0.02,0.31,0.03,-26.41,4.21,-38.31,
56530.9,-0.35,0.05,0.87,0.03,-0.06,0.00,-25.85,3.70,-39.47,
56531.0,-0.38,0.03,0.87,-0.01,-0.05,0.00,-26.47,3.74,-38.60,
56531.1,-0.36,0.04,0.87,-0.11,-0.09,0.04,-27.09,3.56,-37.97,
56531.2,-0.34,0.01,0.87,-0.05,-0.14,0.02,-27.22,5.29,-38.72,
56531.3,-0.35,0.03,0.90,0.09,-0.00,-0.04,-27.26,4.41,-36.46,
56531.4,-0.32,0.03,0.86,0.08,-0.03,0.00,-27.09,4.24,-36.96,
56531.5,-0.33,0.04,0.89,0.00,0.07,-0.00,-26.92,5.20,-37.39,
56531.6,-0.29,0.04,0.89,0.01,-0.04,-0.04,-27.44,4.58,-38.64,
56531.7,-0.20,0.03,0.96,0.14,-0.08,-0.34,-27.40,3.43,-36.89,
56531.8,-0.15,0.04,0.99,0.47,0.03,-0.73,-27.09,2.19,-35.62,
56531.9,-0.22,0.04,0.90,0.82,0.17,-1.56,-28.79,-4.23,-37.41,
56532.0,-0.42,0.01,0.88,1.09,0.67,-1.58,-26.77,-10.91,-36.83,
56532.1,-0.57,0.05,0.88,1.28,0.22,-1.52,-22.13,-17.83,-36.80,
56532.2,-0.49,0.09,1.01,1.20,0.21,-1.59,-23.27,-27.48,-33.30,
56532.3,-0.59,0.17,0.71,0.90,-0.36,-1.21,-21.87,-30.42,-31.18,
56532.4,-0.71,0.22,0.66,0.68,-0.35,-0.40,-22.85,-36.92,-28.94,
56532.5,-0.53,0.34,0.71,0.47,-0.13,-0.28,-24.53,-39.05,-25.74,
56532.6,-0.42,0.32,0.75,0.48,-0.17,-0.25,-24.70,-40.93,-23.22,
56532.7,-0.42,0.26,0.79,0.22,1.33,-0.15,-27.78,-40.59,-21.88,
56532.8,-0.76,0.28,0.56,0.17,0.30,0.08,-25.55,-39.73,-26.41,
56532.9,-0.50,0.29,0.75,0.02,-0.55,0.25,-25.38,-38.87,-25.57,
56533.0,-0.82,0.36,0.74,0.18,-0.32,0.54,-26.74,-37.87,-25.83,
56533.1,-0.62,0.49,0.78,0.70,-1.39,1.40,-26.75,-35.10,-20.15,
56533.2,-0.37,0.52,0.72,0.99,-1.44,1.42,-28.12,-32.44,-9.68,
56533.3,-0.17,0.57,0.49,0.95,-1.02,1.43,-27.69,-30.75,-5.38,
56533.4,0.11,0.62,0.54,0.77,-1.49,0.96,-27.44,-28.95,-1.44,
56533.5,0.12,0.70,0.47,0.76,-0.20,0.81,-29.91,-27.38,4.01,
56533.6,0.31,0.77,0.39,0.59,-0.69,0.75,-31.18,-23.80,5.60,
56533.7,0.35,0.77,0.37,0.35,-0.89,0.46,-31.03,-23.65,8.45,
56533.8,0.37,0.78,0.29,0.33,-0.37,0.38,-31.14,-21.49,11.87,
56533.9,0.39,0.78,0.25,0.30,-0.06,0.29,-30.51,-21.77,13.65,
56534.0,0.47,0.78,0.21,0.11,-0.05,0.16,-33.20,-20.49,14.27,
56534.1,0.50,0.77,0.27,-0.10,-0.09,-0.04,-32.23,-20.74,14.99,
56534.2,0.44,0.79,0.23,-0.20,0.02,-0.15,-31.71,-20.23,14.15,
56534.3,0.42,0.76,0.24,-0.50,0.26,-0.36,-31.12,-20.21,13.07,
56534.4,0.37,0.74,0.27,-0.73,0.58,-0.47,-31.54,-21.08,11.97,
56534.5,0.29,0.67,0.45,-1.07,0.82,-0.65,-31.08,-23.86,8.76,
56534.6,0.10,0.64,0.56,-1.05,0.94,-0.79,-30.69,-26.39,4.09,
56534.7,0.04,0.56,0.61,-1.09,0.95,-0.89,-28.10,-27.15,1.06,
56534.8,-0.13,0.51,0.82,-1.02,0.55,-0.95,-29.27,-28.63,-4.91,
56534.9,-0.27,0.45,0.86,-0.73,1.06,-0.76,-29.83,-29.98,-7.47,
56535.0,-0.37,0.42,0.91,-0.39,1.62,-0.52,-29.83,-32.37,-11.83,
56535.1,-0.51,0.36,0.78,-0.16,0.58,-0.30,-30.48,-32.37,-17.43,
56535.2,-0.46,0.36,0.75,-0.13,0.07,-0.12,-31.37,-33.57,-22.38,
56535.3,-0.48,0.34,0.76,-0.12,0.10,-0.19,-32.56,-34.74,-24.89,
56535.4,-0.53,0.36,0.70,0.16,0.26,-0.06,-32.40,-34.60,-25.07,
56535.5,-0.54,0.35,0.69,0.00,0.05,-0.02,-31.92,-34.56,-26.34,
56535.6,-0.56,0.25,0.83,0.06,-0.23,-0.02,-32.53,-34.89,-25.70,
56535.7,-0.48,0.14,0.75,0.31,-0.88,0.18,-33.59,-35.11,-25.90,
56535.8,-0.46,0.37,0.69,0.42,-0.94,0.08,-31.05,-36.99,-20.70,
56535.9,-0.44,0.35,0.71,-0.56,-0.11,0.41,-28.12,-39.56,-19.20,
56536.0,-0.43,0.31,0.69,-1.27,0.29,1.36,-28.12,-37.16,-20.21,
56536.1,-0.29,0.19,0.84,-1.28,0.31,1.78,-26.76,-30.25,-26.13,
56536.2,-0.19,0.10,0.94,-1.21,0.31,1.79,-29.83,-21.08,-29.93,
56536.3,-0.18,0.04,0.88,-1.16,0.44,1.60,-30.23,-14.20,-32.93,
56536.4,-0.26,0.04,1.00,-0.87,0.32,1.28,-29.80,-5.38,-36.36,
56536.5,-0.30,0.02,0.90,-0.38,0.33,0.94,-30.00,-1.41,-37.47,
56536.6,-0.32,-0.01,0.85,-0.06,0.22,0.42,-27.75,1.07,-37.27,
56536.7,-0.39,-0.02,0.87,0.02,-0.06,0.22,-26.58,1.67,-37.80,
56536.8,-0.32,0.01,0.88,0.17,0.15,0.02,-27.35,3.38,-38.14,
56536.9,-0.38,0.01,0.87,0.06,0.04,0.03,-27.78,2.19,-37.30,
56537.0,-0.36,0.02,0.86,0.01,0.07,0.07,-28.12,2.87,-36.96,
56537.1,-0.35,0.03,0.87,-0.07,-0.03,0.03,-27.41,3.53,-39.62,
56537.2,-0.33,0.01,0.90,0.07,-0.08,-0.12,-28.46,3.22,-37.97,
56537.3,-0.37,0.03,0.86,0.02,-0.07,-0.05,-28.63,2.06,-37.55,
56537.4,-0.33,0.03,0.87,-0.07,-0.11,0.03,-28.82,3.49,-37.73,
56537.5,-0.32,0.01,0.90,-0.02,-0.13,-0.01,-28.91,2.68,-37.08,
56537.6,-0.32,-0.01,0.88,0.03,-0.11,-0.03,-28.29,2.53,-35.68,
56537.7,-0.27,0.00,0.86,-0.05,-0.17,-0.05,-30.17,3.22,-35.96,
56537.8,-0.30,0.01,0.87,-0.04,-0.04,-0.10,-30.69,2.02,-37.13,
56537.9,-0.29,0.00,0.89,-0.06,0.03,-0.09,-30.04,3.14,-35.62,
56538.0,-0.31,-0.02,0.87,-0.03,-0.00,-0.01,-30.26,3.59,-35.15,
56538.1,-0.28,-0.02,0.88,0.03,0.02,0.01,-30.39,2.08,-35.48,
56538.2,-0.30,-0.03,0.88,0.03,0.02,0.01,-32.74,2.02,-37.13,
56538.3,-0.28,-0.02,0.90,0.02,-0.04,0.00,-29.83,2.87,-34.95,
56538.4,-0.28,-0.00,0.88,0.07,0.01,-0.03,-29.02,2.99,-34.29,
56538.5,-0.28,-0.02,0.88,0.05,-0.01,-0.02,-29.32,0.99,-35.46,
56538.6,-0.25,-0.01,0.91,0.05,-0.09,-0.11,-29.66,1.67,-36.13,
56538.7,-0.25,-0.00,0.91,0.09,-0.09,-0.20,-31.91,1.61,-34.10,
56538.8,-0.23,0.00,0.94,0.16,-0.33,-0.26,-30.86,-0.21,-35.62,
56538.9,-0.14,0.01,0.96,0.25,-0.73,-0.37,-33.58,-0.73,-32.24,
56539.0,-0.08,0.02,0.95,0.31,-0.69,-0.51,-34.96,-2.60,-29.25,
56539.1,-0.02,0.05,0.97,0.32,-0.71,-0.76,-35.22,-4.64,-26.99,
56539.2,0.04,0.04,0.98,0.58,-0.79,-1.11,-37.17,-9.67,-22.29,
56539.3,0.09,0.14,0.90,0.68,-0.26,-1.42,-37.19,-14.75,-20.37,
56539.4,-0.02,0.21,0.95,0.86,-0.02,-1.43,-35.97,-20.30,-17.69,
56539.5,-0.09,0.32,0.83,1.01,0.43,-1.42,-34.28,-26.21,-14.51,
56539.6,-0.23,0.33,0.78,0.98,0.49,-1.37,-31.20,-30.32,-13.84,
56539.7,-0.31,0.46,0.69,0.71,-0.06,-1.19,-27.78,-36.48,-11.16,
56539.8,-0.34,0.50,0.60,0.10,0.23,-0.75,-29.26,-38.11,-7.59,
56539.9,-0.46,0.41,0.68,-0.17,1.15,-0.25,-29.55,-38.71,-8.54,
56540.0,-0.55,0.46,0.51,-0.25,1.56,0.34,-30.69,-38.70,-12.66,
56540.1,-0.63,0.39,0.67,-0.28,1.03,0.11,-30.86,-38.19,-17.52,
56540.2,-0.79,0.47,0.70,0.28,0.48,0.46,-30.07,-35.57,-21.43,
56540.3,-0.64,0.51,0.88,0.61,-1.00,0.73,-30.35,-34.59,-20.70,
56540.4,-0.46,0.57,0.77,0.86,-0.82,0.98,-28.78,-32.20,-11.67,
56540.5,-0.38,0.60,0.55,1.10,-0.75,1.25,-27.52,-30.59,-5.72,
56540.6,-0.17,0.64,0.49,1.08,-0.40,1.20,-25.72,-30.32,-0.77,
56540.7,-0.01,0.72,0.40,0.97,-0.44,1.20,-26.37,-29.38,2.39,
56540.8,0.13,0.81,0.23,0.83,-0.54,1.09,-29.17,-26.84,5.03,
56540.9,0.30,0.79,0.25,0.56,-0.66,0.83,-30.23,-24.63,9.01,
56541.0,0.31,0.80,0.25,0.41,-0.32,0.67,-30.38,-22.16,11.04,
56541.1,0.41,0.89,0.15,0.41,-0.17,0.46,-31.88,-18.69,12.64,
56541.2,0.51,0.83,0.10,0.27,-0.10,0.28,-31.58,-18.34,13.71,
56541.3,0.42,0.84,0.16,0.00,0.04,0.01,-33.42,-17.15,13.48,
56541.4,0.44,0.86,0.14,-0.17,-0.02,-0.06,-32.23,-17.66,13.31,
56541.5,0.43,0.81,0.16,-0.34,0.09,-0.33,-31.99,-18.17,13.36,
56541.6,0.33,0.80,0.17,-0.57,0.42,-0.63,-31.88,-18.34,12.97,
56541.7,0.30,0.81,0.28,-0.79,0.18,-0.79,-31.37,-21.59,9.79,
56541.8,0.15,0.79,0.38,-0.90,0.65,-0.93,-29.43,-24.75,7.12,
56541.9,0.03,0.71,0.44,-0.86,1.01,-1.16,-28.25,-26.46,4.02,
56542.0,-0.17,0.65,0.58,-0.83,0.92,-1.32,-26.23,-29.01,-1.39,
56542.1,-0.41,0.64,0.67,-0.56,0.83,-1.16,-24.35,-31.35,-4.12,
56542.2,-0.61,0.56,0.66,-0.25,1.18,-0.69,-26.41,-31.51,-9.48,
56542.3,-0.60,0.61,0.56,-0.12,0.80,-0.50,-25.48,-33.51,-10.66,
56542.4,-0.57,0.56,0.57,-0.21,0.11,-0.38,-25.58,-33.94,-14.65,
56542.5,-0.60,0.50,0.58,-0.16,0.27,-0.37,-26.21,-37.24,-17.28,
56542.6,-0.66,0.47,0.57,-0.08,0.28,-0.34,-26.75,-38.53,-18.19,
56542.7,-0.71,0.47,0.53,-0.04,0.31,-0.21,-27.30,-39.83,-20.93,
56542.8,-0.73,0.48,0.49,0.15,0.19,0.06,-27.57,-40.35,-22.30,
56542.9,-0.69,0.44,0.56,-0.10,-0.25,-0.05,-26.07,-39.90,-22.89,
56543.0,-0.70,0.41,0.51,-0.06,-0.35,-0.04,-27.26,-41.10,-23.05,
56543.1,-0.65,0.44,0.58,-0.10,-0.32,-0.00,-27.61,-39.05,-22.05,
56543.2,-0.67,0.31,0.65,-0.03,-0.27,0.03,-27.61,-40.07,-18.70,
56543.3,-0.64,0.29,0.68,0.48,-1.12,0.21,-27.25,-39.72,-20.32,
56543.4,-0.49,0.48,0.62,0.40,-0.55,0.49,-26.41,-42.30,-14.17,
56543.5,-0.45,0.56,0.54,0.03,0.15,0.63,-25.34,-41.12,-10.07,
56543.6,-0.42,0.55,0.61,-0.73,0.31,0.93,-25.72,-40.89,-11.42,
56543.7,-0.46,0.53,0.56,-0.99,0.54,1.05,-25.55,-38.70,-15.01,
56543.8,-0.32,0.45,0.67,-1.14,0.24,1.09,-25.53,-33.70,-22.00,
56543.9,-0.38,0.31,0.77,-1.21,0.03,1.01,-26.92,-29.46,-26.41,
56544.0,-0.29,0.25,0.85,-1.26,0.01,1.17,-27.88,-22.92,-29.91,
56544.1,-0.21,0.19,0.91,-0.95,0.25,1.04,-30.00,-15.09,-30.76,
56544.2,-0.23,0.15,0.92,-0.80,0.06,0.77,-30.69,-10.64,-32.77,
56544.3,-0.18,0.11,0.92,-0.71,0.03,0.56,-29.67,-5.37,-35.69,
56544.4,-0.18,0.06,0.96,-0.48,0.10,0.17,-30.17,-1.23,-34.28,
56544.5,-0.27,0.03,0.95,-0.25,-0.03,0.01,-30.51,0.48,-34.28,
56544.6,-0.30,0.03,0.92,-0.04,0.00,-0.09,-28.68,-0.39,-34.48,
56544.7,-0.30,0.04,0.90,0.00,0.11,-0.04,-29.84,-1.56,-34.95,
56544.8,-0.29,0.04,0.88,0.02,0.09,0.04,-31.16,0.18,-37.26,
56544.9,-0.29,0.01,0.90,-0.02,0.00,0.09,-30.17,1.85,-34.95,
56545.0,-0.29,0.01,0.88,-0.03,-0.01,0.10,-28.97,0.31,-35.12,
56545.1,-0.28,0.01,0.90,-0.03,-0.01,0.07,-29.52,1.08,-36.88,
56545.2,-0.28,0.02,0.90,-0.02,-0.04,0.05,-29.28,2.19,-36.93,
56545.3,-0.27,0.02,0.88,-0.01,-0.04,0.04,-30.22,1.21,-36.22,
56545.4,-0.27,0.01,0.89,-0.01,-0.02,0.04,-30.29,2.00,-35.12,
56545.5,-0.26,0.03,0.90,-0.04,0.00,0.02,-31.37,3.04,-36.13,
56545.6,-0.30,0.04,0.91,-0.04,0.01,0.03,-30.91,2.67,-34.36,
56545.7,-0.28,0.05,0.92,0.03,-0.16,0.18,-31.37,3.04,-34.45,
56545.8,-0.26,0.04,0.94,-0.01,-0.38,0.34,-31.37,4.07,-34.45,
56545.9,-0.17,0.04,0.88,-0.11,-0.75,0.55,-31.56,5.41,-32.86,
56546.0,-0.09,0.04,0.93,-0.18,-0.61,0.68,-34.45,7.15,-29.76,
56546.1,-0.14,0.04,0.89,-0.03,-0.47,0.84,-34.35,9.71,-26.50,
56546.2,-0.03,-0.04,0.91,-0.02,-0.55,0.74,-34.62,13.82,-25.23,
56546.3,0.02,-0.06,0.90,0.04,-0.11,0.57,-34.84,16.42,-24.70,
56546.4,0.04,-0.07,0.92,-0.08,-0.14,0.52,-35.10,17.45,-22.68,
56546.5,-0.01,-0.09,0.85,-0.03,0.27,0.37,-35.31,18.95,-23.22,
56546.6,0.06,-0.09,0.94,-0.04,0.02,0.10,-33.85,21.77,-22.47,
