time,mr,mtheta,mphi,gx,gy,gz,ax,ay,az,
56450.4,42.433083790834715,3.3995885748699086,2.1467349221703618,0.02,-0.01,-0.23,0.01,0.00,0.93,
56450.4,40.925489612220886,3.4052594063273753,2.1493904819672194,0.01,0.01,-0.26,0.02,0.01,0.93,
56450.4,40.903076901377474,3.398677262820923,2.157655056130655,0.01,0.02,-0.26,0.01,0.01,0.94,
56450.5,43.730556822432526,3.37666534891363,2.164930651915859,-0.34,-0.15,0.23,0.11,-0.02,0.96,
56450.5,43.48439835159272,3.372985013431115,2.1637598831157923,-0.32,-0.17,0.09,0.09,-0.01,1.00,
56450.5,39.906073472593114,3.342725204101685,2.1412548825295934,-0.25,-0.18,-0.05,0.06,-0.01,1.02,
56450.6,41.11377506383962,3.4062963627337703,2.1435053924199177,-0.08,-0.05,-0.10,-0.04,-0.02,0.97,
56450.6,40.73826824989005,3.4113637347327668,2.147702087049143,-0.05,-0.05,-0.13,-0.06,-0.02,0.96,
56450.6,40.85195099380199,3.3601029448561497,2.1502741328547588,-0.05,-0.04,-0.14,-0.07,-0.02,0.97,
56450.7,42.04556575906667,3.3941825730027753,2.1558666361118393,0.08,-0.18,-0.05,-0.04,-0.05,1.00,
56450.7,42.02630247832897,3.4052001302920654,2.1507559405764463,0.08,-0.18,-0.05,-0.05,-0.06,1.01,
56450.7,42.01402384918636,3.41314724957258,2.1469684869132495,0.09,-0.19,-0.05,-0.06,-0.07,1.01,
56450.8,42.437164137109825,3.3747656499880367,2.139944176979296,0.24,-0.18,0.03,-0.06,-0.05,0.96,
56450.8,41.60036538301076,3.391781031031411,2.1246361592092624,0.25,-0.20,0.04,-0.06,-0.06,0.96,
56450.8,42.04566089384254,3.415440734048623,2.1231210465212103,0.26,-0.22,0.04,-0.06,-0.06,0.96,
56450.9,42.37546105943863,3.3881622997958867,2.0996422779307444,0.32,-0.23,0.12,-0.07,-0.06,0.91,
56450.9,42.20474617859939,3.3905012238814036,2.1009087484528184,0.33,-0.24,0.13,-0.07,-0.07,0.90,
56450.9,41.60791391069732,3.398631986814481,2.1057007247003874,0.33,-0.24,0.14,-0.07,-0.06,0.89,
56451.0,42.261956887962484,3.3644750993498755,2.0965555145685375,0.26,-0.21,0.32,-0.10,0.02,0.97,
56451.0,42.41274572578389,3.358308187913375,2.098309831008071,0.27,-0.18,0.33,-0.11,0.00,0.97,
56451.0,43.19475546869087,3.3278998517697014,2.1065376534959572,0.28,-0.15,0.36,-0.11,-0.01,0.96,
56451.1,41.92780819456223,3.3247828028764657,2.074298463248324,0.28,-0.02,0.53,0.02,0.04,0.88,
56451.1,42.09859380074351,3.309849669128694,2.066925972803162,0.28,-0.01,0.53,0.02,0.04,0.87,
56451.1,42.85581757474707,3.2803244463252743,2.074624546090131,0.28,-0.00,0.53,0.02,0.03,0.86,
56451.2,43.80206958580838,3.2634879469672238,2.0762720145789784,0.20,0.09,0.37,-0.06,0.14,0.85,
56451.2,43.10741699522253,3.260310168479356,2.091084531860273,0.19,0.03,0.36,-0.05,0.13,0.85,
56451.2,42.75122805253669,3.2585906404159353,2.09911166555046,0.18,-0.03,0.35,-0.05,0.12,0.84,
56451.3,42.2894135688827,3.257370663710955,2.0822944822126486,0.16,0.12,0.16,0.08,0.12,0.90,
56451.3,42.60484244777816,3.252456455843825,2.0693032033841128,0.16,0.14,0.15,0.08,0.14,0.90,
56451.3,42.57895489558192,3.2787781388328847,2.077944039366125,0.16,0.15,0.14,0.08,0.15,0.89,
56451.4,45.28198979726928,3.250522856982079,2.0750958863274187,0.06,0.14,-0.02,0.02,0.14,0.88,
56451.4,45.03201749866421,3.251630854021146,2.083250689067874,0.06,0.11,-0.02,0.02,0.14,0.89,
56451.4,44.43107246061027,3.254413312124534,2.103109372972387,0.06,0.08,-0.02,0.03,0.14,0.89,
56451.5,43.28079135136048,3.2443502030524973,2.114242227234795,0.09,-0.18,-0.20,0.06,0.15,0.85,
56451.5,42.49376071848666,3.2369880619444613,2.116359633688372,0.08,-0.22,-0.21,0.08,0.15,0.85,
56451.5,42.66593020197731,3.2369880619444613,2.1229714114181917,0.07,-0.26,-0.23,0.09,0.15,0.86,
56451.6,44.669144831751595,3.273886294412919,2.1054277964853845,0.01,-0.29,-0.42,0.10,0.15,0.90,
56451.6,44.80284142774875,3.271105874846545,2.0982286779162207,0.01,-0.29,-0.43,0.10,0.15,0.92,
56451.6,44.216192735241236,3.2593448297032515,2.1015105082590084,0.00,-0.29,-0.44,0.09,0.15,0.92,
56451.7,43.63536753597934,3.305315106714303,2.0828511125370235,0.11,-0.08,-0.50,0.07,0.13,0.96,
56451.7,44.32975637199013,3.3457135641410374,2.0484946079496558,0.12,-0.04,-0.50,0.06,0.14,0.95,
56451.7,44.593718167472865,3.358927468257892,2.0368794422225953,0.14,-0.01,-0.50,0.06,0.14,0.94,
56451.8,44.935609487354235,3.36831603279359,2.0570706890988255,0.17,0.16,-0.40,-0.04,0.20,0.87,
56451.8,44.51351030866921,3.388233262742843,2.0547156127972013,0.16,0.12,-0.40,-0.04,0.20,0.86,
56451.8,44.160263812617785,3.4024947356481645,2.0738551107934597,0.15,0.07,-0.40,-0.04,0.21,0.86,
56451.9,45.51787011713092,3.409568951855895,2.0597536370522698,0.03,-0.21,-0.39,0.03,0.18,0.90,
56451.9,44.48387235841772,3.4178499900004797,2.072162049207414,0.03,-0.22,-0.38,0.03,0.17,0.89,
56451.9,44.657951139746665,3.4430434812385315,2.0748793169878232,0.02,-0.22,-0.36,0.04,0.16,0.90,
56452.0,45.46083699185487,3.4802854698660854,2.0329515687054722,-0.06,-0.20,0.25,0.12,0.20,0.91,
56452.0,45.685337910537555,3.4704708385156824,2.057804323680414,-0.05,-0.21,0.27,0.13,0.20,0.91,
56452.0,44.967417092824,3.4740783820605383,2.056445337886993,-0.05,-0.21,0.29,0.13,0.20,0.92,
56452.1,45.90698203977256,3.4006632660377303,2.0473884679583954,0.07,-0.17,0.29,0.14,0.19,0.89,
56452.1,45.99694555076457,3.396116858635591,2.045645454000594,0.08,-0.17,0.28,0.15,0.18,0.90,
56452.1,45.80532174322106,3.399139251172347,2.027748580261707,0.08,-0.17,0.27,0.14,0.18,0.90,
56452.2,45.10251545091471,3.40043420195131,2.0393964778134297,0.16,-0.04,0.18,0.12,0.21,0.84,
56452.2,45.53727044959985,3.405575662874679,2.0414564131923463,0.16,-0.02,0.18,0.12,0.22,0.84,
56452.2,45.62774704058924,3.4063777955178027,2.041922973128231,0.16,-0.00,0.18,0.11,0.23,0.84,
56452.3,46.164004375703804,3.4000769285294634,2.0159965020818222,0.06,0.12,0.27,0.15,0.22,0.89,
56452.3,46.781672693481156,3.4009430993668968,2.0175130574586415,0.06,0.16,0.27,0.15,0.22,0.88,
56452.3,45.06911248294113,3.380021452064469,2.0130853178312957,0.06,0.20,0.27,0.14,0.22,0.87,
56452.4,44.396852365905396,3.345406610538659,2.0338175888354844,-0.00,0.22,0.27,0.12,0.21,0.90,
56452.4,44.74298827749438,3.358927468257892,2.0434682466167233,-0.01,0.21,0.27,0.12,0.21,0.90,
56452.4,44.626253483795836,3.3573958867844493,2.043044100424135,-0.02,0.20,0.27,0.12,0.21,0.90,
56452.5,45.445374902183396,3.3039777844348728,2.043968196468324,-0.04,0.22,0.30,0.13,0.15,0.92,
56452.5,45.36365174894984,3.3014820839956296,2.046625870532902,-0.03,0.22,0.30,0.12,0.16,0.92,
56452.5,44.81731138745384,3.2859613154403147,2.0637780077923678,-0.03,0.22,0.29,0.11,0.15,0.91,
56452.6,43.88473196910287,3.3125485162472743,2.071329705465099,0.00,0.07,0.25,0.10,0.15,0.88,
56452.6,43.96269782440564,3.309211513373747,2.0698416967169293,0.00,0.06,0.25,0.11,0.15,0.89,
56452.6,45.46040145005321,3.278752070364024,2.051970535333221,-0.00,0.05,0.25,0.11,0.15,0.89,
56452.7,45.45456852726687,3.2860116365666716,2.074257076449464,0.04,0.23,0.08,0.08,0.16,0.87,
56452.7,45.0958423804235,3.2908596987868455,2.0816918350796696,0.03,0.21,0.08,0.07,0.16,0.87,
56452.7,45.10275047045357,3.2664184578946114,2.0737442702039446,0.02,0.20,0.07,0.07,0.16,0.87,
56452.8,46.6073309684217,3.312260755475216,2.088121838014901,-0.01,-0.11,-0.03,0.06,0.13,0.92,
56452.8,45.56313092841623,3.2855289883980774,2.0913170147707296,-0.01,-0.13,-0.02,0.07,0.13,0.92,
56452.8,44.84492055963529,3.2662029862944855,2.0933021479863365,-0.00,-0.14,-0.02,0.08,0.14,0.91,
56452.9,45.23706555469751,3.2764068546805185,2.0962203045575336,0.08,0.05,-0.03,0.07,0.14,0.89,
56452.9,43.70566439261621,3.2873671028257614,2.0906255788881296,0.08,0.06,-0.03,0.07,0.15,0.88,
56452.9,43.86932755354246,3.30194136786791,2.0932198892939082,0.08,0.07,-0.03,0.08,0.16,0.87,
56453.0,44.307327836374874,3.305315106714303,2.109218452690915,-0.03,0.14,-0.18,0.01,0.17,0.91,
56453.0,44.60790288726875,3.3069987202141276,2.1080665445921025,-0.02,0.13,-0.17,0.01,0.17,0.90,
56453.0,45.653098470969084,3.313140507530909,2.1043755444586747,-0.03,0.11,-0.17,-0.00,0.18,0.90,
56453.1,45.41654984694456,3.3232106282806444,2.107455149116083,-0.11,-0.18,0.05,0.07,0.15,0.95,
56453.1,44.8886143693476,3.2957937817985403,2.079938866171192,-0.11,-0.16,0.07,0.07,0.16,0.95,
56453.1,45.03001776593032,3.2947058038441908,2.0789491717804234,-0.11,-0.14,0.09,0.08,0.16,0.95,
56453.2,44.576014851038444,3.273509853135394,2.0970391471351335,-0.05,-0.16,0.10,0.06,0.13,0.88,
56453.2,44.42594062031776,3.26844934862601,2.107624515152276,-0.04,-0.17,0.10,0.07,0.14,0.88,
56453.2,45.40725052235601,3.2835601654615076,2.057060362688696,-0.04,-0.17,0.09,0.08,0.14,0.88,
56453.3,44.74963240072481,3.2552696620277435,2.0602813671708824,0.03,-0.14,-0.06,0.11,0.16,0.90,
56453.3,44.12695094837168,3.265852164512286,2.059068957526069,0.03,-0.10,-0.06,0.11,0.17,0.91,
56453.3,43.825605529188074,3.271105874846545,2.058587457068981,0.03,-0.06,-0.07,0.12,0.17,0.91,
56453.4,46.12310917533639,3.284816801079749,2.0699911923568948,0.03,0.12,0.03,0.04,0.16,0.89,
56453.4,45.07247275222427,3.2762710291312187,2.060739184527958,0.02,0.10,0.04,0.04,0.16,0.89,
56453.4,45.303403845627315,3.2734148397752394,2.0657825119962796,0.02,0.08,0.05,0.05,0.15,0.90,
56453.5,44.27093064303031,3.2835260150595693,2.0660506427059735,-0.00,0.12,0.16,0.09,0.15,0.89,
56453.5,44.616477897745355,3.2685922284398434,2.059331961884221,-0.01,0.13,0.16,0.08,0.16,0.89,
56453.5,45.44245812013254,3.2356771082836273,2.044001057719829,-0.02,0.13,0.16,0.08,0.15,0.89,
56453.6,44.89021051409761,3.2326608151282237,2.046046360296817,-0.11,0.06,0.13,0.11,0.13,0.91,
56453.6,45.395070216929945,3.2552696620277435,2.08633671735304,-0.12,0.08,0.13,0.11,0.13,0.91,
56453.6,45.49268182905906,3.2611724653060397,2.0906846261445002,-0.12,0.10,0.12,0.11,0.12,0.92,
56453.7,45.06466575932856,3.2188958421589966,2.096642874179472,-0.16,0.20,0.07,0.11,0.12,0.90,
56453.7,44.91279327763972,3.217357495854585,2.0968033059173075,-0.16,0.23,0.06,0.11,0.12,0.90,
56453.7,45.50182413925842,3.2381315838413522,2.0936108237762303,-0.17,0.27,0.05,0.11,0.13,0.90,
56453.8,44.990485660859456,3.246511015052799,2.1395214751905858,-0.26,0.88,0.06,-0.07,0.08,0.85,
56453.8,46.569103491478124,3.242370819708941,2.1306223439948706,-0.26,0.89,0.07,-0.09,0.08,0.84,
56453.8,47.072639611562046,3.2411367637745774,2.12818237166117,-0.27,0.90,0.07,-0.10,0.08,0.84,
56453.9,45.56314848646875,3.2117854201897873,2.1912334892100627,-0.34,0.33,0.15,-0.07,0.08,0.93,
56453.9,46.309256094219435,3.211073775378678,2.1996515225939293,-0.33,0.31,0.15,-0.08,0.08,0.94,
56453.9,45.205330437903,3.1863552582218677,2.2045662930943246,-0.33,0.29,0.15,-0.07,0.08,0.94,
56454.0,44.882658120926834,3.1760810767672947,2.2229706605506787,-0.29,0.08,0.20,-0.02,0.05,1.00,
56454.0,44.64335448865822,3.1594327318174815,2.229051076703607,-0.28,0.07,0.19,-0.02,0.04,1.02,
56454.0,44.29162787706047,3.1326822829132484,2.238077789785951,-0.26,0.05,0.18,-0.03,0.04,1.03,
56454.1,46.47051323151058,3.1129823104102643,2.2310182178616365,-0.04,-0.26,0.01,0.07,0.06,0.99,
56454.1,45.927932677184586,3.1519043640718536,2.2103090995068824,-0.03,-0.22,0.00,0.06,0.06,0.98,
56454.1,45.26246347692533,3.144070622086216,2.210230767572603,-0.02,-0.17,-0.01,0.06,0.06,0.97,
56454.2,46.15124483694887,3.12702924249562,2.2330994311817736,-0.04,-0.03,0.00,-0.11,0.02,0.91,
56454.2,46.22845227779101,3.1232234559063965,2.232345908847471,-0.04,-0.06,0.01,-0.11,0.01,0.91,
56454.2,44.829705553349335,3.099137296381963,2.2334576054434394,-0.05,-0.07,0.01,-0.10,0.01,0.92,
56454.3,46.94940574703795,3.1331803689921314,2.239033341420731,-0.02,0.05,0.08,-0.08,0.01,0.92,
56454.3,46.089055099882444,3.1331803689921314,2.2150181632256336,-0.02,0.03,0.09,-0.08,0.01,0.91,
56454.3,45.927406850376386,3.1331803689921314,2.2103176152122637,-0.03,0.01,0.09,-0.08,0.01,0.93,
56454.4,46.59939162693007,3.117553569362602,2.2378547153579715,-0.01,0.04,0.02,-0.05,0.01,0.93,
56454.4,46.7395025647471,3.1331803689921314,2.2333235538573355,-0.01,0.03,0.02,-0.06,0.01,0.93,
56454.4,45.182575181146994,3.117646822942823,2.2377576024183803,-0.01,0.03,0.02,-0.05,0.01,0.92,
56454.5,45.77371407259848,3.087659704794974,2.2563664903349334,-0.01,0.03,-0.02,-0.08,0.01,0.93,
56454.5,45.43276901092426,3.1003278995745522,2.2137565974130435,-0.01,0.03,-0.02,-0.09,0.00,0.93,
56454.5,45.86148711064655,3.111530635704875,2.2176570971796377,-0.01,0.03,-0.01,-0.09,0.01,0.94,
56454.6,46.47211852283044,3.0907144969905507,2.2424848741749512,0.00,-0.03,0.02,-0.07,0.01,0.92,
56454.6,46.2733821975442,3.0928843087298405,2.237901333145975,0.00,-0.03,0.02,-0.07,0.01,0.92,
56454.6,45.19558496136541,3.1048282529458033,2.2132647980715205,0.00,-0.03,0.03,-0.07,0.01,0.92,
56454.7,45.17636550232876,3.1182635534416066,2.2191256603724367,-0.00,0.01,-0.00,-0.07,0.01,0.94,
56454.7,45.07941991640975,3.1198750995217424,2.2196417598915925,0.00,0.00,-0.00,-0.07,0.00,0.93,
56454.7,44.5987006537186,3.1279996080985977,2.2278417996936817,0.00,0.00,0.00,-0.07,-0.00,0.94,
56454.8,45.99280487206667,3.133019854759634,2.2368942563726995,-0.01,0.00,0.02,-0.07,0.00,0.91,
56454.8,45.27506156815251,3.1201201833557404,2.2102990924128827,-0.01,0.00,0.02,-0.07,0.00,0.92,
56454.8,45.24984640857911,3.119013181239833,2.209887355800265,-0.01,-0.00,0.03,-0.07,0.00,0.92,
56454.9,44.9777244866834,3.1236189256234,2.2074605542108006,-0.01,0.02,0.01,-0.07,0.00,0.92,
56454.9,45.23539322256412,3.1267013109523276,2.2115028847372002,-0.01,0.02,0.01,-0.07,0.01,0.92,
56454.9,45.41053732340105,3.1283812009919876,2.214123412611318,-0.01,0.02,0.01,-0.07,0.01,0.92,
56455.0,45.96738300142831,3.1046535372499386,2.222195247187787,-0.01,0.01,-0.01,-0.06,0.00,0.93,
56455.0,45.59153649527508,3.1142211726074898,2.2251740143948795,-0.01,0.01,-0.01,-0.06,-0.00,0.92,
56455.0,44.870570533479956,3.0946017759354,2.23472637115757,-0.01,0.01,-0.01,-0.06,-0.00,0.92,
56455.1,45.95001414580849,3.1044796076305317,2.2467991256513273,-0.01,0.03,-0.02,-0.08,-0.00,0.93,
56455.1,46.16320396159695,3.1001226668263913,2.2408874545789423,-0.01,0.02,-0.01,-0.07,-0.00,0.93,
56455.1,46.849470648023335,3.087330296886367,2.2226030452221193,-0.02,0.02,-0.01,-0.08,0.00,0.92,
56455.2,44.43915053193523,3.113696847823064,2.2164512679912245,-0.01,0.03,-0.02,-0.07,-0.00,0.93,
56455.2,44.791585147212636,3.1138531340197075,2.2194716634646974,-0.01,0.03,-0.02,-0.07,-0.01,0.92,
56455.2,46.270146963241864,3.1144760142719323,2.232192128128786,-0.01,0.02,-0.02,-0.07,-0.01,0.92,
56455.3,45.2769665503333,3.117935096301123,2.2400537315304856,0.01,0.00,-0.04,-0.07,-0.01,0.92,
56455.3,44.737010405256186,3.1278635391319094,2.244478888182429,0.01,-0.00,-0.03,-0.08,-0.01,0.93,
56455.3,46.12111663869382,3.1185953061867218,2.257769363251915,0.01,-0.00,-0.03,-0.07,-0.01,0.93,
56455.4,46.97501782862887,3.072708087282888,2.242948410487106,0.01,0.04,-0.04,-0.07,-0.01,0.93,
56455.4,46.8060370037883,3.108172103893986,2.23655423709807,0.02,0.04,-0.04,-0.07,-0.01,0.93,
56455.4,46.742994127462566,3.123955405297944,2.233265279373228,0.02,0.04,-0.04,-0.07,-0.01,0.93,
56455.5,45.83196482805423,3.1301947596446142,2.239099221462995,0.02,0.09,-0.04,-0.07,-0.01,0.93,
56455.5,46.05249721784911,3.133099707109893,2.226527482290757,0.03,0.10,-0.05,-0.07,-0.00,0.94,
56455.5,46.650571271957645,3.1185177382130873,2.23127801442373,0.03,0.10,-0.05,-0.08,-0.00,0.93,
56455.6,46.22447620038544,3.1380143589255716,2.2373578357791146,0.05,0.14,-0.12,-0.06,-0.00,0.92,
56455.6,45.52634182536523,3.137959354876483,2.2374038804302487,0.06,0.13,-0.13,-0.07,-0.00,0.92,
56455.6,44.052002224643545,3.137837616357378,2.237450632411752,0.06,0.12,-0.13,-0.08,0.00,0.91,
56455.7,46.2674550845408,3.1424143460917984,2.232237413616245,0.02,0.09,-0.15,-0.08,-0.01,0.94,
56455.7,47.39958755094816,3.1194460859590234,2.2449892661243567,0.02,0.10,-0.15,-0.08,-0.01,0.95,
56455.7,47.197881308380786,3.129675557960917,2.243252503909618,0.03,0.11,-0.15,-0.09,-0.00,0.95,
56455.8,45.8609583414913,3.1756281460073743,2.274381347648323,0.01,-0.06,-0.07,-0.08,0.00,0.94,
56455.8,45.80381861810214,3.182099372254072,2.2780222186949137,0.02,-0.03,-0.07,-0.09,-0.01,0.93,
56455.8,45.623114755570995,3.1717571421687443,2.26219513922645,0.02,-0.01,-0.07,-0.09,-0.01,0.94,
56455.9,46.453620956821005,3.174503678278118,2.2064584558416365,0.01,-0.08,0.02,-0.12,0.00,0.91,
56455.9,45.84114854582071,3.1970608608548794,2.216352603650302,0.01,-0.08,0.02,-0.11,0.00,0.91,
56455.9,45.66873000204845,3.2037201382349765,2.219199365375582,0.01,-0.08,0.02,-0.11,0.00,0.91,
56456.0,45.888165140916236,3.1761202626340905,2.2625063460030344,-0.00,-0.06,0.02,-0.09,0.00,0.91,
56456.0,45.78401904595095,3.15210111632146,2.2310464649046042,-0.00,-0.07,0.02,-0.09,0.00,0.91,
56456.0,45.77249829318911,3.1693324839850168,2.2345659608347974,-0.00,-0.09,0.02,-0.09,0.00,0.91,
56456.1,44.97805909551901,3.123092060382122,2.2450370905010866,0.03,-0.06,-0.01,-0.07,0.00,0.93,
56456.1,45.65586928314912,3.141031171335491,2.2466318075085696,0.03,-0.05,-0.02,-0.08,-0.00,0.93,
56456.1,46.650010718112384,3.166085415052058,2.248504743916719,0.03,-0.05,-0.02,-0.07,0.00,0.93,
56456.2,44.57367945323787,3.1768216253636785,2.241379487940999,0.02,-0.09,-0.02,-0.07,-0.01,0.93,
56456.2,47.53071954010375,3.1742070793657917,2.2249005499132504,0.02,-0.09,-0.03,-0.07,-0.00,0.92,
56456.2,47.006243202366214,3.15819975246917,2.223805060774115,0.02,-0.09,-0.03,-0.07,-0.01,0.92,
56456.3,46.23166988115398,3.165124160368318,2.2298269946664147,0.02,0.01,-0.02,-0.06,0.00,0.92,
56456.3,46.26427347316717,3.165871647236888,2.2268239988045635,0.02,0.01,-0.01,-0.06,-0.00,0.92,
56456.3,45.35116977543137,3.166316706009211,2.224515615363955,0.02,0.02,-0.01,-0.07,0.00,0.92,
56456.4,45.884522444937794,3.1473193431002073,2.21564079131751,0.01,-0.02,-0.02,-0.06,0.01,0.92,
56456.4,46.63549828188823,3.1831222651444375,2.230443245331178,0.01,-0.02,-0.02,-0.07,0.00,0.93,
56456.4,46.77122512827732,3.189046824428089,2.2327945182237685,0.01,-0.02,-0.02,-0.07,0.00,0.92,
56456.5,45.14520794059985,3.166316706009211,2.2185370641960684,0.02,-0.02,-0.00,-0.07,-0.00,0.93,
56456.5,45.50310978383786,3.161219660199414,2.22251277559792,0.02,-0.02,-0.00,-0.07,-0.00,0.92,
56456.5,45.81636716283822,3.1567305007605904,2.2258110909698994,0.02,-0.02,-0.00,-0.07,-0.00,0.92,
56456.6,45.78033420585743,3.185465566198689,2.2358192741697036,0.01,-0.01,-0.02,-0.07,-0.00,0.93,
56456.6,46.251298360154166,3.1776106653798846,2.216710932544617,0.02,-0.01,-0.02,-0.07,0.00,0.94,
56456.6,46.76075918973086,3.169575840935668,2.197126228246219,0.02,-0.01,-0.02,-0.07,-0.00,0.93,
56456.7,44.832124642938794,3.175436043635692,2.196039659836138,0.03,-0.00,-0.03,-0.06,0.00,0.94,
56456.7,45.73397642890895,3.1750132032856,2.2061123281497874,0.04,0.00,-0.03,-0.07,0.00,0.94,
56456.7,46.18977159501874,3.1781617095033345,2.215275745012192,0.04,0.01,-0.02,-0.07,0.01,0.93,
56456.8,45.8661629090553,3.218047319534482,2.2296565338625314,0.02,-0.05,0.00,-0.06,0.01,0.92,
56456.8,46.743473341205615,3.2064296545261755,2.232172445981552,0.02,-0.05,0.00,-0.05,0.01,0.92,
56456.8,47.031419285409626,3.2025650654555173,2.2330657340393563,0.02,-0.04,-0.00,-0.05,0.01,0.91,
56456.9,46.13597945205022,3.1895753289167126,2.214525377209722,0.01,-0.09,0.03,-0.06,0.01,0.91,
56456.9,46.31681983901745,3.1846530118350582,2.2267680933080287,0.00,-0.10,0.03,-0.06,0.01,0.92,
56456.9,46.09487064739417,3.174904479446674,2.233778203652745,0.00,-0.10,0.02,-0.05,0.01,0.91,
56457.0,45.98698185356373,3.1975780433445387,2.2262517117863,0.03,0.04,0.00,-0.07,0.00,0.92,
56457.0,45.34531287795906,3.1904092270689737,2.2293462227942173,0.03,0.04,0.01,-0.07,0.00,0.91,
56457.0,45.17367042869109,3.2013551982724326,2.213351360914467,0.02,0.04,0.01,-0.07,0.01,0.92,
56457.1,45.462201882442955,3.183632878603481,2.20423560082138,0.02,0.01,0.01,-0.05,0.01,0.93,
56457.1,44.954878489436496,3.1757555169201557,2.2125488519981418,0.02,0.01,0.01,-0.05,0.01,0.92,
56457.1,44.65842585671824,3.1777583415722863,2.205785923188618,0.02,0.02,0.01,-0.05,0.01,0.92,
56457.2,45.82857732899855,3.210374676489285,2.2035084869554216,0.01,-0.01,0.00,-0.07,0.00,0.92,
56457.2,46.03766718677218,3.211247227318361,2.2055667683093354,0.01,-0.01,0.00,-0.07,0.00,0.92,
56457.2,46.07644734568844,3.2037201382349765,2.2307895590525546,0.01,-0.02,0.00,-0.07,0.00,0.92,
56457.3,44.68314559204622,3.1760810767672947,2.2171010133737195,0.01,0.02,-0.00,-0.06,0.01,0.92,
56457.3,45.70133477263,3.183212441185058,2.215370022339745,0.02,0.01,-0.01,-0.06,0.01,0.92,
56457.3,45.89758817192904,3.184937011107513,2.215154158354903,0.01,0.01,-0.01,-0.05,0.01,0.92,
56457.4,45.67954246706068,3.1895011717592925,2.2143596782446586,0.03,-0.02,-0.03,-0.07,0.01,0.93,
56457.4,45.98646105105284,3.1920852665640775,2.2262604191217057,0.03,-0.02,-0.02,-0.07,0.01,0.92,
56457.4,46.264151348533346,3.1943924187036052,2.2366833809966864,0.03,-0.02,-0.02,-0.06,0.01,0.92,
56457.5,45.320203000427966,3.2140818249979883,2.2172762119269205,0.03,0.03,-0.01,-0.06,0.01,0.92,
56457.5,43.85754895112129,3.1672946759803793,2.2313794119789954,0.03,0.03,-0.01,-0.06,0.01,0.92,
56457.5,44.76884742764773,3.1735145793640416,2.2178955206639483,0.03,0.03,-0.01,-0.06,0.01,0.92,
56457.6,45.760059003458466,3.249119851861734,2.224001942134028,0.03,0.04,-0.01,-0.07,0.02,0.91,
56457.6,46.95380921714446,3.215266686591818,2.211842875528528,0.03,0.03,-0.01,-0.06,0.01,0.92,
56457.6,46.49290483503907,3.214416897797113,2.21737288344045,0.02,0.02,-0.01,-0.06,0.01,0.92,
56457.7,45.70243319561881,3.1953825553412876,2.2446945802100338,0.02,0.04,0.00,-0.05,0.02,0.92,
56457.7,45.92186951769276,3.1974920407543035,2.241439991902223,0.01,0.04,0.00,-0.06,0.01,0.92,
56457.7,47.18169666300694,3.2104491428908375,2.2127347677091205,0.01,0.04,0.00,-0.06,0.01,0.93,
56457.8,46.00772435146081,3.1798372258753487,2.211728746138349,-0.00,-0.01,-0.01,-0.05,0.02,0.93,
56457.8,46.15163160712739,3.1798372258753487,2.2158969587841404,-0.00,-0.02,-0.01,-0.05,0.01,0.93,
56457.8,46.044706536148105,3.210791664023366,2.238495412662588,-0.00,-0.02,-0.01,-0.04,0.02,0.93,
56457.9,45.82697677132978,3.1794879209001046,2.1938270227938825,0.04,-0.07,-0.04,-0.04,0.02,0.93,
56457.9,45.77236065574945,3.2078539526303977,2.205765523372721,0.04,-0.07,-0.04,-0.05,0.01,0.93,
56457.9,45.752513592151416,3.2268648216796936,2.2131638769063584,0.04,-0.06,-0.04,-0.05,0.02,0.93,
56458.0,45.81345435568028,3.199319425770311,2.1980772339614414,0.04,0.01,-0.02,-0.05,0.02,0.92,
56458.0,45.7363542491091,3.203145560036333,2.208793120099224,0.04,0.01,-0.02,-0.05,0.02,0.92,
56458.0,45.67089883065583,3.2090020753968598,2.220262654745799,0.03,0.02,-0.02,-0.06,0.02,0.92,
56458.1,46.13452178141657,3.2343613729571103,2.198118756770547,0.00,-0.00,0.01,-0.04,0.01,0.92,
56458.1,45.731999737601676,3.2328400560228174,2.19963944571577,0.01,0.01,0.01,-0.04,0.01,0.92,
56458.1,44.61272127992194,3.2284755531610485,2.204314162339091,0.01,0.02,0.01,-0.05,0.01,0.91,
56458.2,45.86144459129041,3.2208428545315897,2.19785728081572,-0.01,-0.03,0.03,-0.05,0.01,0.92,
56458.2,45.8548634279942,3.2280737816042224,2.2009271650129696,-0.01,-0.03,0.03,-0.04,0.01,0.92,
56458.2,45.83336884847108,3.2545346230729137,2.211844564634443,-0.01,-0.03,0.03,-0.04,0.01,0.93,
56458.3,45.263369295711954,3.2104491428908375,2.2096653559695647,0.00,-0.01,0.03,-0.06,0.01,0.92,
56458.3,45.26085394687113,3.218047319534482,2.21218601134151,0.00,-0.02,0.03,-0.05,0.01,0.92,
56458.3,45.17005756029098,3.2096059566123074,2.222847342048237,-0.00,-0.02,0.03,-0.05,0.00,0.93,
56458.4,44.405083042372524,3.2010159215593155,2.226655133681521,0.01,0.01,0.01,-0.05,0.01,0.92,
56458.4,44.933722302965286,3.225376101954542,2.204589568844322,0.01,-0.00,0.01,-0.05,0.01,0.92,
56458.4,45.18528189576779,3.236104754054633,2.1950382783771167,0.01,-0.00,0.02,-0.04,0.01,0.92,
56458.5,45.76050480490791,3.1979557906205325,2.2157650413645524,0.01,0.01,-0.02,-0.05,0.01,0.93,
56458.5,46.78148672284796,3.187770523293233,2.1968056995477903,0.01,0.00,-0.01,-0.05,0.01,0.93,
56458.5,45.612644080342456,3.186298253467194,2.206711772787732,0.01,0.01,-0.01,-0.05,0.00,0.92,
56458.6,46.69018847680956,3.204908485232489,2.181651317804765,0.02,0.03,-0.02,-0.06,0.01,0.92,
56458.6,46.56624528561434,3.2014679484418855,2.19564319461414,0.02,0.03,-0.02,-0.06,0.01,0.92,
56458.6,46.05999023013357,3.2133016096067366,2.1990240747560668,0.02,0.03,-0.02,-0.06,0.01,0.92,
56458.7,44.66796279213996,3.2429250596410713,2.2086905798055456,0.02,-0.01,-0.02,-0.05,0.02,0.92,
56458.7,46.10504202362254,3.239335299313924,2.202877035849872,0.02,-0.01,-0.02,-0.06,0.01,0.92,
56458.7,46.001532583165094,3.2300339521396086,2.2021000828244235,0.02,-0.02,-0.02,-0.05,0.02,0.92,
56458.8,46.71142579712163,3.2080748431924704,2.1657404108183953,0.02,-0.01,-0.01,-0.05,0.02,0.92,
56458.8,46.94715007324725,3.208041901202073,2.155178491456205,0.02,-0.01,-0.01,-0.05,0.01,0.92,
56458.8,44.66389369501947,3.218047319534482,2.1940657369371017,0.02,-0.01,-0.01,-0.06,0.02,0.92,
56458.9,45.175928324717354,3.2388049943794472,2.232250749418621,0.01,-0.02,0.01,-0.04,0.01,0.93,
56458.9,45.170558995876945,3.2047924558079472,2.2214469896749653,0.01,-0.01,0.01,-0.05,0.01,0.93,
56458.9,45.17725201913016,3.1948902820369547,2.2180004868285215,0.01,-0.01,0.01,-0.05,0.02,0.92,
56459.0,46.36446268425851,3.214477494059953,2.199852268405036,0.02,-0.00,0.00,-0.04,0.02,0.92,
56459.0,47.46428762764696,3.1962359254492876,2.203841597601885,0.02,-0.01,0.00,-0.04,0.02,0.92,
56459.0,45.95883157783714,3.214508973358217,2.1984715848612915,0.02,-0.01,0.00,-0.05,0.02,0.92,
56459.1,45.42004073093727,3.1807078868929315,2.205737616697193,0.01,0.01,-0.01,-0.04,0.02,0.93,
56459.1,43.74054869340347,3.1867564286704972,2.2141737227133618,0.01,0.01,-0.01,-0.04,0.01,0.92,
56459.1,43.95064163354159,3.1962323208205614,2.2004221485577684,0.01,0.01,-0.01,-0.04,0.01,0.92,
56459.2,45.23168248031461,3.2371832708283628,2.2079835521149116,0.03,0.01,-0.02,-0.04,0.02,0.92,
56459.2,46.37397653857172,3.2014679484418855,2.18987166283532,0.03,0.01,-0.02,-0.04,0.02,0.92,
56459.2,46.17602949583257,3.2001765663880066,2.191065188110599,0.03,0.01,-0.02,-0.04,0.02,0.92,
56459.3,46.284990007560765,3.217007302952158,2.204583449078586,0.01,-0.02,0.01,-0.04,0.01,0.92,
56459.3,46.295939346772094,3.2156505125399497,2.2046776973618205,0.01,-0.02,0.01,-0.04,0.01,0.92,
56459.3,46.5100634271767,3.211073775378678,2.2055633633646248,0.01,-0.02,0.01,-0.04,0.02,0.93,
56459.4,44.16386418781762,3.2388049943794472,2.202228770420142,0.01,-0.01,0.01,-0.04,0.02,0.92,
56459.4,45.46540003123254,3.2073192626573026,2.1852134372821985,0.01,-0.02,0.01,-0.04,0.02,0.92,
56459.4,45.68367104338267,3.2023431022981246,2.1829160022883825,0.01,-0.02,0.01,-0.04,0.02,0.92,
56459.5,45.39889315831389,3.2161464184228725,2.201982114109904,0.00,0.00,0.01,-0.05,0.01,0.92,
56459.5,46.01744886453398,3.2025650654555173,2.2042716769383155,0.00,-0.00,0.01,-0.05,0.02,0.92,
56459.5,45.13421429470109,3.1881023657497596,2.189039767828689,0.01,-0.00,0.01,-0.04,0.02,0.92,
56459.6,46.29864036880565,3.2011833978966666,2.205707462491853,0.00,0.01,0.01,-0.04,0.01,0.94,
56459.6,47.4436982116698,3.195268551959921,2.1782540163370956,0.00,0.01,0.01,-0.05,0.02,0.93,
56459.6,46.506930666299624,3.2081783806373014,2.1899468858258286,0.01,0.00,0.01,-0.05,0.01,0.93,
56459.7,46.988598617111364,3.1289750266968306,2.198083920750153,0.02,0.01,-0.00,-0.04,0.02,0.92,
56459.7,46.820773167473426,3.146858534352385,2.1954090559445496,0.02,0.01,-0.00,-0.04,0.02,0.92,
56459.7,46.21578193647707,3.219419225630284,2.1832927179844943,0.03,0.01,-0.00,-0.04,0.02,0.92,
56459.8,46.163064239714416,3.2416048033987352,2.187543250445623,0.01,-0.00,-0.01,-0.04,0.01,0.93,
56459.8,46.218443288367034,3.2399931429563,2.189081608777321,0.01,-0.00,-0.01,-0.05,0.01,0.93,
56459.8,46.110268921358504,3.2252901827061184,2.198500152990419,0.01,-0.00,-0.01,-0.05,0.01,0.93,
56459.9,45.37107228179647,3.2238748988296817,2.233372112969451,0.01,0.00,0.00,-0.05,0.02,0.92,
56459.9,47.17200652929659,3.209237868904077,2.1716874056156623,0.01,0.00,0.00,-0.05,0.02,0.92,
56459.9,47.035689640952434,3.208314929592346,2.1698088212162405,0.00,0.00,0.00,-0.05,0.02,0.92,
56460.0,45.058252296333016,3.218047319534482,2.2061397984969493,0.01,0.02,0.01,-0.04,0.02,0.92,
56460.0,45.454677427081144,3.2255907253325815,2.197006559595244,0.01,0.02,0.01,-0.04,0.02,0.92,
56460.0,45.68664356242424,3.230230668317285,2.191454133364254,0.01,0.03,0.01,-0.04,0.02,0.92,
56460.1,45.33920709496362,3.194161405978442,2.1972154874737995,0.00,-0.00,0.03,-0.04,0.02,0.93,
56460.1,44.843091998656824,3.1850554939865194,2.1958631258281365,0.00,0.00,0.03,-0.04,0.02,0.93,
56460.1,45.074651412961586,3.204166116046069,2.2053205082215874,0.00,0.00,0.03,-0.04,0.02,0.93,
56460.2,45.448574235062644,3.1943924187036052,2.2134960961271752,0.02,-0.01,0.02,-0.03,0.01,0.93,
56460.2,45.366364191987,3.2033611462198253,2.2085286584305326,0.02,-0.00,0.02,-0.03,0.01,0.93,
56460.2,45.16051926185083,3.2268648216796936,2.195433310745609,0.02,-0.00,0.01,-0.03,0.01,0.93,
56460.3,45.83386957262064,3.219419225630284,2.1713317517670188,0.02,-0.01,-0.01,-0.04,0.02,0.93,
56460.3,45.807074781085944,3.2123717268105882,2.1727915420838917,0.02,-0.01,-0.01,-0.04,0.01,0.92,
56460.3,45.729731029167446,3.1881882654168554,2.177410062702384,0.02,-0.01,-0.02,-0.04,0.01,0.92,
56460.4,45.60705427891611,3.180024770542477,2.2065297260775942,0.00,-0.00,-0.02,-0.05,0.02,0.92,
56460.4,45.493176411413614,3.1658584105521754,2.203735671252494,0.00,-0.00,-0.02,-0.05,0.02,0.92,
56460.4,44.935849830619645,3.2319050772881903,2.1943744069580102,0.00,-0.00,-0.02,-0.05,0.02,0.92,
56460.5,45.27619683674856,3.2208428545315897,2.1797926544671413,-0.00,0.02,0.00,-0.05,0.02,0.92,
56460.5,45.19740479275331,3.1860565991085195,2.203597213543782,0.00,0.03,0.00,-0.05,0.02,0.92,
56460.5,45.188445425794406,3.1708984204613158,2.213383044613689,-0.00,0.03,0.01,-0.04,0.02,0.92,
56460.6,45.95409666177761,3.2037201382349765,2.2273513544321037,0.00,-0.00,0.01,-0.05,0.02,0.93,
56460.6,46.291411730471125,3.2020115329165884,2.1999319342258903,0.01,-0.00,0.01,-0.04,0.02,0.93,
56460.6,46.62244202098385,3.2135808663364127,2.200600777001073,0.01,0.00,0.01,-0.05,0.02,0.94,
56460.7,43.22540341049462,3.1824987046463424,2.2182001118413703,0.02,-0.00,0.02,-0.05,0.02,0.92,
56460.7,43.90397020771584,3.1900790259167033,2.2082642684559386,0.02,-0.00,0.02,-0.04,0.02,0.92,
56460.7,45.14791357305452,3.203145560036333,2.190999765344476,0.02,-0.00,0.02,-0.04,0.02,0.92,
56460.8,47.95191862689125,3.2125523750602816,2.194343222293497,-0.01,0.00,0.01,-0.05,0.01,0.92,
56460.8,45.95534680535008,3.206250600013774,2.1830195424337098,-0.01,0.01,0.01,-0.05,0.01,0.92,
56460.8,45.61085068270488,3.209949596224774,2.1883334091420092,-0.01,0.01,0.01,-0.05,0.01,0.93,
56460.9,45.4877708840519,3.1935782927233767,2.1935002268078154,0.01,0.02,0.00,-0.05,0.02,0.94,
56460.9,45.41700562564644,3.193410083704229,2.1867744557346596,0.01,0.02,0.00,-0.05,0.02,0.92,
56460.9,45.27705599970032,3.197731506620691,2.175477558852603,0.01,0.02,0.00,-0.05,0.02,0.93,
56461.0,45.40390291593884,3.184246400130197,2.1869787440103567,0.00,0.01,-0.00,-0.06,0.02,0.92,
56461.0,45.18256079506782,3.2029573469691943,2.1939909897206427,0.00,0.01,0.00,-0.06,0.01,0.92,
56461.0,45.11810058058739,3.2080698967032375,2.196111275634672,0.00,0.00,0.00,-0.06,0.01,0.92,
56461.1,46.08291006436117,3.2319809559763377,2.2213756773941626,-0.01,-0.01,0.02,-0.05,0.01,0.93,
56461.1,45.8661629090553,3.218047319534482,2.2296565338625314,-0.01,-0.01,0.03,-0.04,0.01,0.94,
56461.1,45.25695858097404,3.2240342218823796,2.192266292846246,-0.00,-0.01,0.03,-0.04,0.01,0.94,
56461.2,45.613846581931675,3.216621156978272,2.1971882443370525,0.02,0.03,-0.01,-0.05,0.01,0.93,
56461.2,45.98272501711919,3.2171257907463313,2.1778275814425925,0.02,0.02,-0.01,-0.05,0.02,0.92,
56461.2,46.50248810547667,3.217357495854585,2.1529965953616172,0.02,0.02,-0.01,-0.05,0.01,0.92,
56461.3,45.484284099016,3.2151524535337557,2.191121381155363,-0.00,-0.00,0.02,-0.04,0.02,0.91,
56461.3,45.412554431566605,3.21934352765415,2.1960471985349774,-0.01,-0.01,0.02,-0.04,0.02,0.92,
56461.3,45.44344287133183,3.23788798480568,2.227676401522941,-0.01,-0.01,0.02,-0.04,0.01,0.92,
56461.4,45.73271039420253,3.2270360526745696,2.2066761934629455,-0.02,-0.04,0.05,-0.02,0.01,0.93,
56461.4,45.79637867779503,3.2294965066248276,2.208636832793823,-0.02,-0.03,0.05,-0.01,0.01,0.94,
56461.4,45.68681757356273,3.2130370457244877,2.218899428275147,-0.02,-0.03,0.04,-0.02,0.01,0.94,
56461.5,46.35476890245489,3.2504816069020688,2.1769814198769977,0.02,0.01,-0.01,-0.05,0.01,0.93,
56461.5,46.250575131559174,3.2053473342802694,2.20137753373521,0.02,0.01,-0.01,-0.05,0.01,0.93,
56461.5,46.19948592787586,3.198044987274378,2.2048691732859775,0.02,0.01,-0.01,-0.05,0.01,0.92,
56461.6,45.80418867308972,3.2035784189759107,2.1842704311151615,0.04,-0.04,0.03,-0.03,0.00,0.91,
56461.6,45.78011249440088,3.215266686591818,2.1766466316842603,0.04,-0.04,0.03,-0.03,0.00,0.91,
56461.6,45.25068618264258,3.216947111365178,2.1920937555775106,0.04,-0.03,0.03,-0.03,-0.00,0.92,
56461.7,45.547511457817315,3.215282667426281,2.1903996854214394,0.01,0.00,0.02,-0.02,0.00,0.92,
56461.7,45.91834600679776,3.211073775378678,2.187851390783919,0.01,0.00,0.02,-0.02,0.00,0.93,
56461.7,46.275951637972824,3.20847837848546,2.189258392657402,0.00,-0.00,0.01,-0.02,0.01,0.93,
56461.8,44.8850030633841,3.1886136290163343,2.1634190678696523,-0.00,0.04,-0.01,-0.05,0.00,0.94,
56461.8,44.83750885140699,3.18935538221768,2.1681731056609976,-0.00,0.03,-0.02,-0.05,0.01,0.92,
56461.8,44.62932444032735,3.1937408569919303,2.1932430242500773,-0.00,0.03,-0.02,-0.05,0.01,0.93,
56461.9,46.083325617841425,3.151717540743755,2.1898359487514307,-0.00,-0.01,0.02,-0.04,0.02,0.92,
56461.9,46.22694560535014,3.1604025821463573,2.2057752422014016,-0.00,-0.01,0.02,-0.03,0.02,0.92,
56461.9,46.50825948151575,3.1751224878694786,2.232566741000375,-0.00,-0.02,0.02,-0.03,0.02,0.92,
56462.0,46.096009588683486,3.212671851306573,2.1931064863612435,-0.01,0.01,0.00,-0.02,-0.01,0.92,
56462.0,45.79829800331012,3.2384513566863053,2.1808934396570847,-0.01,0.02,0.00,-0.02,-0.01,0.93,
56462.0,45.657333474481405,3.2302129165792404,2.1860004713234646,-0.02,0.02,0.00,-0.02,-0.01,0.93,
56462.1,45.70776958023657,3.161041306848998,2.1780098768313536,-0.02,0.01,0.00,-0.04,0.00,0.93,
56462.1,46.00981960408017,3.216621156978272,2.20898598029214,-0.02,0.01,0.00,-0.04,-0.00,0.92,
56462.1,45.96530648217197,3.213132482873351,2.2135040325248454,-0.01,0.02,-0.01,-0.04,0.00,0.92,
56462.2,45.17233666747825,3.2012072274064005,2.184643145056942,-0.01,0.05,-0.02,-0.05,0.01,0.93,
56462.2,44.951156826048425,3.203145560036333,2.1848446350558923,-0.01,0.03,-0.02,-0.05,0.01,0.93,
56462.2,45.64697908953012,3.1886136290163343,2.187771418382458,-0.02,0.02,-0.01,-0.04,0.01,0.93,
56462.3,45.69290535739657,3.1768344666554014,2.180369748422138,0.03,0.04,-0.04,-0.06,0.01,0.91,
56462.3,45.88486569665427,3.1929393440199902,2.1883691589416236,0.03,0.03,-0.04,-0.06,0.00,0.91,
56462.3,46.350617040121485,3.223769459939399,2.184677228326391,0.02,0.02,-0.04,-0.06,0.00,0.91,
56462.4,46.309256094219435,3.211073775378678,2.1996515225939293,0.01,0.00,0.00,-0.06,0.00,0.92,
56462.4,46.43027568300666,3.2067985891060635,2.197756970183538,0.01,0.00,0.01,-0.06,0.00,0.92,
56462.4,46.56624528561434,3.2014679484418855,2.19564319461414,0.01,-0.00,0.01,-0.05,0.00,0.92,
56462.5,45.26380562878027,3.2062840316097665,2.203343266255976,0.03,0.03,-0.01,-0.04,0.02,0.93,
56462.5,44.97904623266261,3.1948902820369547,2.212147394939911,0.03,0.03,-0.01,-0.05,0.02,0.93,
56462.5,45.47118868030613,3.201482787962554,2.2002762451125255,0.03,0.02,-0.01,-0.05,0.02,0.93,
56462.6,45.248130348114934,3.226104424747721,2.1856260217651378,0.06,0.05,-0.01,-0.05,0.02,0.91,
56462.6,45.24751263881806,3.2246217149795458,2.1834728774321697,0.05,0.05,-0.01,-0.05,0.02,0.91,
56462.6,45.34704510770244,3.211073775378678,2.1698649925268256,0.05,0.04,-0.01,-0.05,0.01,0.91,
56462.7,44.27537238691505,3.2619063589565402,2.1956459509488404,0.03,-0.01,0.01,-0.04,0.01,0.92,
56462.7,45.86942118666857,3.1949831605226873,2.199347453158658,0.04,-0.00,0.01,-0.04,0.01,0.92,
56462.7,46.02398831044524,3.189201334931023,2.200667491038433,0.04,0.01,0.01,-0.05,0.01,0.91,
56462.8,45.313515643789984,3.227892463380611,2.2033599956767227,0.05,0.01,-0.04,-0.04,0.02,0.93,
56462.8,44.66141287509834,3.2327535678541803,2.198801600671664,0.04,0.02,-0.04,-0.04,0.02,0.94,
56462.8,44.78452969497391,3.2289811246085653,2.208706807000224,0.04,0.02,-0.04,-0.04,0.01,0.92,
56462.9,45.56328126902188,3.189046824428089,2.19799151955624,0.03,0.01,-0.07,-0.05,0.02,0.91,
56462.9,46.172057567320955,3.205505486378527,2.1908604905566316,0.02,-0.00,-0.07,-0.05,0.01,0.91,
56462.9,46.688684924722395,3.218726382981519,2.185077083068218,0.02,-0.01,-0.07,-0.05,0.01,0.91,
56463.0,46.08935343438873,3.231983388138543,2.209597130295388,0.00,-0.04,-0.03,-0.04,0.01,0.92,
56463.0,46.49354901489023,3.218726382981519,2.179101078851585,0.01,-0.03,-0.03,-0.04,0.02,0.93,
56463.0,46.746689722374995,3.2260696121078647,2.1952329813454927,0.01,-0.03,-0.03,-0.04,0.02,0.93,
56463.1,45.29908829104622,3.2443502030524973,2.184021852778268,-0.01,-0.05,0.01,-0.02,0.01,0.92,
56463.1,45.39546012543545,3.2378144367371866,2.1906242376780214,-0.01,-0.06,0.01,-0.02,0.02,0.92,
56463.1,45.91532859514347,3.2080698967032375,2.2197753772801496,-0.01,-0.06,0.01,-0.02,0.02,0.92,
56463.2,45.72818824313948,3.211073775378678,2.1819656350546497,-0.01,-0.00,0.00,-0.04,0.01,0.93,
56463.2,44.82517596172936,3.257752818040803,2.219463453540237,-0.01,-0.00,-0.00,-0.04,0.01,0.94,
56463.2,44.7414896935719,3.2529591163728497,2.213602126570336,-0.01,-0.00,-0.00,-0.04,0.01,0.93,
56463.3,45.623789846964705,3.2197035037283155,2.1649355185720904,0.01,-0.01,-0.01,-0.04,0.02,0.93,
56463.3,45.24091289971943,3.2245354202784053,2.1581311339519247,0.01,-0.01,-0.01,-0.04,0.02,0.92,
56463.3,44.93162249463066,3.22248199564686,2.1930719003728987,0.01,-0.01,-0.02,-0.04,0.01,0.93,
56463.4,45.13847804257472,3.239335299313924,2.1730232151993922,0.02,0.07,-0.00,-0.05,0.01,0.91,
56463.4,45.1984181139119,3.239915882680514,2.1834250722221213,0.02,0.07,-0.00,-0.06,0.01,0.92,
56463.4,45.237190452104784,3.2402621975105275,2.1895909477649482,0.01,0.06,-0.00,-0.06,0.01,0.91,
56463.5,45.38733744118507,3.2083773613206557,2.193732862289262,0.00,-0.03,0.01,-0.03,0.00,0.93,
56463.5,45.13847804257472,3.239335299313924,2.1730232151993922,0.00,-0.02,0.01,-0.03,0.00,0.93,
56463.5,46.50327837905625,3.218023597037801,2.1760760689845915,0.00,-0.02,0.01,-0.03,-0.00,0.94,
56463.6,45.57003181916818,3.1742070793657917,2.166527804543037,-0.00,-0.02,0.00,-0.03,-0.00,0.92,
56463.6,45.9558200884284,3.1938016970159557,2.17030580996303,0.00,-0.02,0.01,-0.03,-0.00,0.93,
56463.6,47.049985122208064,3.24463871350868,2.1796712374821645,0.00,-0.02,0.01,-0.02,-0.00,0.92,
56463.7,45.08429660092303,3.2130370457244877,2.201038542778549,0.01,0.02,-0.02,-0.06,0.00,0.93,
56463.7,44.76182972131502,3.203145560036333,2.178819011263879,0.01,0.01,-0.02,-0.05,0.01,0.93,
56463.7,45.12145055292439,3.20767672955045,2.1762444960930964,0.01,0.00,-0.02,-0.05,0.01,0.93,
56463.8,45.73632582532182,3.2113352953569843,2.2036318951811165,0.02,0.01,0.02,-0.04,0.02,0.92,
56463.8,45.75441508750822,3.2123768423268713,2.2085004820808884,0.02,0.01,0.02,-0.04,0.02,0.91,
56463.8,45.82448472159834,3.2402621975105275,2.207367931911267,0.01,0.00,0.02,-0.04,0.02,0.91,
56463.9,46.37004528787954,3.2237351065405666,2.2027014189440974,0.01,-0.00,0.02,-0.04,0.01,0.93,
56463.9,47.12615940218341,3.2367304410617748,2.19596936399231,0.01,0.01,0.02,-0.04,0.01,0.93,
56463.9,45.52067332542435,3.199288333345983,2.1883931004139012,0.01,0.01,0.02,-0.04,0.01,0.93,
56464.0,45.60945625635105,3.2014679484418855,2.1659419594986513,0.01,0.04,-0.02,-0.03,-0.00,0.90,
56464.0,45.06223807136082,3.204347253771414,2.172301383673078,0.01,0.04,-0.02,-0.03,-0.00,0.91,
56464.0,44.25619165721334,3.2086930934381765,2.182094463695481,0.01,0.04,-0.02,-0.04,-0.00,0.91,
56464.1,45.98736456897699,3.249932143839806,2.182796355960021,0.09,0.08,-0.02,-0.04,0.05,0.92,
56464.1,45.129346328082356,3.2319050772881903,2.200310537241029,0.08,0.08,-0.02,-0.05,0.05,0.92,
56464.1,45.08421120525455,3.2280469349885323,2.194466361188572,0.08,0.09,-0.03,-0.06,0.05,0.94,
56464.2,45.508462949214184,3.2363097680615516,2.2155319050768996,0.15,-0.02,0.06,0.00,0.03,0.91,
56464.2,45.52444837666899,3.2252901827061184,2.1805424202878214,0.15,0.00,0.05,0.01,0.02,0.91,
56464.2,45.797197512511616,3.2323735973717933,2.1862486427696237,0.15,0.03,0.05,0.00,0.02,0.91,
56464.3,46.406336851770575,3.247458753021685,2.1981307405085158,-0.01,0.01,-0.01,-0.04,0.03,0.91,
56464.3,46.155650791641975,3.2242425837915083,2.2047607783953347,-0.01,-0.00,-0.01,-0.05,0.02,0.93,
56464.3,45.99060230090491,3.20744033044104,2.2092959514552346,-0.01,-0.01,-0.01,-0.05,0.01,0.93,
56464.4,47.52078387400612,3.2230659206443253,2.2029694931977306,-0.03,-0.02,0.10,-0.07,-0.01,0.96,
56464.4,45.41077074879924,3.241965760283272,2.199610853493245,-0.03,-0.01,0.11,-0.06,-0.00,0.96,
56464.4,44.9385547164125,3.2462968409685264,2.1989987958605943,-0.02,0.00,0.12,-0.06,0.00,0.94,
56464.5,44.26647715822889,3.2150935386108648,2.2145830577233534,-0.02,0.10,0.02,-0.05,0.05,0.90,
56464.5,44.693625943751755,3.2099751542633688,2.2214155067170944,-0.02,0.11,0.02,-0.05,0.05,0.90,
56464.5,45.12966319395703,3.20490204414868,2.2282811973389434,-0.03,0.10,0.01,-0.05,0.05,0.90,
56464.6,45.992925542957146,3.2125556867009886,2.198202388993122,-0.02,0.08,0.02,-0.05,0.04,0.90,
56464.6,45.45906510257332,3.218047319534482,2.2180026501933563,-0.02,0.08,0.01,-0.05,0.04,0.90,
56464.6,45.14865003518931,3.2407065980529794,2.223209384854664,-0.03,0.08,0.00,-0.05,0.04,0.90,
56464.7,46.15921359815395,3.2171317059831517,2.22229586296396,-0.10,0.05,0.03,-0.09,0.01,0.90,
56464.7,46.28257879591412,3.2159377644968785,2.2046217377751565,-0.11,0.04,0.03,-0.09,-0.00,0.90,
56464.7,46.07253954363705,3.213540323153175,2.21909408239559,-0.11,0.04,0.03,-0.09,-0.00,0.90,
56464.8,47.038284407490885,3.2058565106103116,2.217943861402862,-0.05,-0.06,0.01,-0.09,-0.00,0.95,
56464.8,46.932477028173146,3.2081075493744033,2.217244121015238,-0.05,-0.07,0.01,-0.09,-0.01,0.94,
56464.8,44.808865194289396,3.2284755531610485,2.2102497079065375,-0.04,-0.07,0.02,-0.09,-0.01,0.94,
56464.9,45.33196223416763,3.2395376491835552,2.2315284150978965,-0.04,-0.08,0.08,-0.03,0.00,0.94,
56464.9,45.425044854133056,3.263053552517122,2.241967591679698,-0.04,-0.08,0.07,-0.03,-0.00,0.93,
56464.9,45.20751486202266,3.223044697895664,2.2244421295049577,-0.04,-0.08,0.06,-0.03,0.00,0.93,
56465.0,44.776460333527936,3.1948902820369547,2.206062955522204,-0.00,0.03,-0.04,-0.05,-0.00,0.94,
56465.0,45.13375787589595,3.208918995373715,2.219284911658788,0.00,0.03,-0.04,-0.06,-0.00,0.95,
56465.0,45.39612097966081,3.2187701550672445,2.2284804806440777,0.01,0.03,-0.04,-0.06,-0.00,0.94,
56465.1,46.056594533247896,3.192044060504453,2.191049766715274,0.01,0.05,-0.02,-0.09,-0.01,0.93,
56465.1,46.1245249298028,3.2055099991870057,2.2672799317694667,0.01,0.04,-0.02,-0.09,-0.01,0.92,
56465.1,45.86256098387878,3.2242084834797957,2.2264122632846988,0.01,0.04,-0.01,-0.09,-0.01,0.92,
56465.2,45.276552430590385,3.2055099991870057,2.2445748892928448,0.02,0.01,0.01,-0.07,-0.00,0.91,
56465.2,45.13289487724004,3.2023553400800395,2.239753814844595,0.01,0.01,0.01,-0.07,-0.00,0.92,
56465.2,44.66787771990068,3.1908762760958096,2.2221358300459477,0.01,0.00,0.01,-0.07,-0.00,0.91,
56465.3,46.13843842177583,3.2319050772881903,2.229747229378596,0.02,0.03,-0.02,-0.06,0.00,0.93,
56465.3,44.941073640935635,3.214395034542726,2.221978436831387,0.02,0.03,-0.02,-0.06,0.00,0.93,
56465.3,45.29568743269054,3.210698177875105,2.2260110706458622,0.02,0.03,-0.02,-0.07,-0.00,0.93,
56465.4,45.47877087169353,3.2105547111355173,2.23375562846005,0.01,0.00,0.01,-0.07,-0.00,0.93,
56465.4,45.295528476881685,3.2004310867968604,2.2394482130336,0.01,0.00,0.01,-0.07,-0.00,0.93,
56465.4,44.847334368945496,3.1717413511754473,2.2283527255574387,0.01,0.00,0.00,-0.07,-0.00,0.92,
56465.5,47.296351867770944,3.1827259905281413,2.1933746347733627,0.02,0.00,-0.01,-0.04,0.01,0.95,
56465.5,47.025204943732035,3.201748164349469,2.2093856188316234,0.02,0.00,-0.02,-0.04,0.01,0.95,
56465.5,46.91046898081493,3.211073775378678,2.2170640478173644,0.02,-0.00,-0.02,-0.04,0.02,0.96,
56465.6,45.14491665736022,3.181085786004944,2.2105108483612144,0.09,0.04,-0.04,-0.05,0.02,0.93,
56465.6,45.57760634346652,3.1982483743877204,2.197763724518245,0.09,0.03,-0.04,-0.05,0.02,0.93,
56465.6,45.223832212673,3.2081425381691724,2.2064622596621644,0.09,0.02,-0.05,-0.05,0.01,0.94,
56465.7,46.37232903359502,3.2099751542633688,2.2675899786836466,0.16,0.05,-0.09,-0.09,0.02,0.93,
56465.7,46.55915377237864,3.2160814438036747,2.248145496477818,0.16,0.06,-0.08,-0.10,0.02,0.93,
56465.7,47.02214584639881,3.2286400298898563,2.206259220498964,0.16,0.06,-0.08,-0.10,0.02,0.92,
56465.8,46.0375075346179,3.2545346230729137,2.2177636765223117,0.00,-0.11,-0.03,-0.07,-0.01,0.94,
56465.8,46.76664409597935,3.2574944265187913,2.2193859351769163,-0.00,-0.10,-0.03,-0.07,-0.01,0.94,
56465.8,46.77870241894274,3.244472973870445,2.211968773556689,-0.00,-0.08,-0.03,-0.08,-0.02,0.93,
56465.9,45.59967653394045,3.2348835313020152,2.2017517105492326,-0.01,-0.10,-0.10,0.01,-0.01,0.94,
56465.9,45.378951067648096,3.236104754054633,2.2009389364056244,-0.01,-0.09,-0.11,0.00,0.00,0.93,
56465.9,46.583984372314056,3.2104491428908375,2.1953685706542796,-0.01,-0.08,-0.12,0.00,0.00,0.93,
56466.0,44.590335275707446,3.248288518906439,2.2138993939979317,-0.00,-0.09,-0.34,0.09,0.01,1.01,
56466.0,44.681364124207306,3.25071970090593,2.201522441806569,-0.01,-0.02,-0.37,0.09,0.00,1.02,
56466.0,44.71664790656831,3.2514569018909807,2.19790504139091,-0.00,0.06,-0.39,0.09,0.00,1.01,
56466.1,45.78404197971167,3.259726201243802,2.2194833323219307,0.21,1.00,-0.69,0.11,0.01,1.03,
56466.1,44.60066367219214,3.283649887593516,2.227807849157248,0.24,1.04,-0.72,0.10,0.00,1.00,
56466.1,45.067915416624274,3.3051638257013654,2.23693687773891,0.27,1.06,-0.76,0.09,-0.00,1.01,
56466.2,44.31326889318819,3.429227069652769,2.246338627093232,0.76,-0.02,-1.74,-0.02,-0.05,1.05,
56466.2,45.010817588664175,3.4994545391896485,2.2587510920961558,0.80,-0.07,-1.76,-0.03,-0.05,1.04,
56466.2,45.15764940738169,3.497830924488932,2.2503744815488336,0.84,-0.12,-1.78,-0.04,-0.05,1.03,
56466.3,45.7412964398693,3.6944487398396264,2.216080994094914,1.08,-0.16,-2.15,-0.15,0.00,0.98,
56466.3,45.30182888140389,3.750302356177343,2.2021811218892076,1.09,-0.11,-2.14,-0.15,0.02,1.01,
56466.3,45.253266180464806,3.7696962822889657,2.1785301311669985,1.10,-0.08,-2.12,-0.15,0.03,1.01,
56466.4,46.520470762880294,3.892412857310917,2.0941410651116827,1.26,-0.10,-1.83,-0.37,0.15,0.86,
56466.4,46.57189495822561,3.896347058143361,2.0920178160334175,1.27,-0.21,-1.82,-0.36,0.16,0.86,
56466.4,46.46246334408024,3.959372388626341,2.0775460600043285,1.28,-0.32,-1.82,-0.33,0.16,0.84,
56466.5,47.150991506011835,4.05118576031898,1.9478458936674525,1.19,0.25,-1.15,-0.49,0.23,0.65,
56466.5,46.683462810721316,4.081424087989571,1.9483559006403421,1.21,0.18,-1.11,-0.46,0.26,0.61,
56466.5,46.60850351598944,4.0864777092996825,1.9485321062772736,1.22,0.08,-1.08,-0.43,0.29,0.59,
56466.6,48.1846012746811,4.146309254001725,1.8692863695177946,0.55,-0.51,-0.89,-0.21,0.47,0.61,
56466.6,48.18660913573397,4.150096700773041,1.8362152445321216,0.50,-0.42,-0.88,-0.19,0.48,0.61,
56466.6,48.219624635619056,4.153088609048876,1.8077671537525664,0.46,-0.31,-0.89,-0.20,0.48,0.61,
56466.7,48.38385061154186,4.182017040573067,1.7484410503566417,0.03,0.55,-0.56,-0.40,0.36,0.67,
56466.7,49.00949601862888,4.182925996487481,1.7515398976228835,-0.02,0.52,-0.57,-0.42,0.34,0.71,
56466.7,49.23207998856031,4.174416370510668,1.759184942037111,-0.06,0.48,-0.58,-0.44,0.32,0.74,
56466.8,49.850245736605956,4.163529827583499,1.7586587546507793,-0.11,0.73,-0.57,-0.24,0.32,0.66,
56466.8,49.5488910067622,4.165164945288859,1.7622814412766876,-0.11,0.70,-0.58,-0.21,0.32,0.69,
56466.8,48.13772844661451,4.173171271297786,1.7796327954973026,-0.11,0.64,-0.60,-0.20,0.31,0.74,
56466.9,49.641392003045205,4.148691174493882,1.8426587380011468,-0.02,1.16,-0.42,-0.42,0.18,0.70,
56466.9,50.00080599350374,4.149673374921765,1.8433540914136526,-0.01,1.19,-0.41,-0.43,0.17,0.69,
56466.9,52.391107069807184,4.156755704557354,1.8480451516663632,0.00,1.20,-0.39,-0.45,0.17,0.69,
56467.0,52.59086042270083,4.119004118300704,1.8869261668266275,0.03,1.07,-0.17,-0.62,0.12,0.94,
56467.0,53.10225136470204,4.106334567875228,1.9344900831554859,0.04,1.13,-0.11,-0.63,0.12,0.89,
56467.0,53.30252245438296,4.107315000763331,1.9396895264032437,0.04,1.11,-0.06,-0.64,0.13,0.85,
56467.1,56.877090291258746,4.097393308209365,1.9880593558520072,0.17,1.56,0.21,-0.78,0.26,0.80,
56467.1,58.0340503497731,4.108537936647945,1.9892118655978073,0.19,1.57,0.28,-0.78,0.26,0.75,
56467.1,58.718681013796626,4.115027324390765,1.9898051145417277,0.18,1.52,0.34,-0.78,0.27,0.72,
56467.2,58.67445440734835,4.113700560428155,2.0162329025780066,-0.10,0.82,0.69,-0.95,0.30,0.70,
56467.2,59.08603388280516,4.083771853570983,2.015157987289919,-0.09,0.78,0.70,-0.93,0.31,0.71,
56467.2,58.33219865563101,4.097368784205081,2.0232252441036995,-0.08,0.73,0.72,-0.91,0.31,0.74,
56467.3,54.146288884834945,4.067665129180604,2.0072669990278955,0.27,-0.15,1.28,-0.92,0.40,0.72,
56467.3,53.676011401742585,4.064900881331804,2.0066258384723312,0.29,-0.19,1.33,-0.92,0.42,0.72,
56467.3,52.39509328171866,4.056937087622177,2.005168470325504,0.30,-0.24,1.36,-0.91,0.43,0.72,
56467.4,49.57885436352881,4.048606503589718,1.910498786475477,0.60,-0.29,1.63,-0.60,0.43,0.65,
56467.4,47.84462143229895,4.014687708090046,1.8936531201790883,0.60,-0.32,1.65,-0.60,0.43,0.63,
56467.4,47.30427570526791,4.020330440062201,1.8901206483707977,0.59,-0.37,1.67,-0.61,0.43,0.61,
56467.5,43.76774383035982,4.036724847876881,1.8312257999072894,0.66,-1.57,1.71,-0.46,0.58,0.60,
56467.5,43.49687115184263,4.03315310205333,1.8302682403287593,0.68,-1.53,1.73,-0.45,0.58,0.59,
56467.5,43.04000580854979,4.003583707594071,1.7412298860372322,0.71,-1.49,1.76,-0.43,0.59,0.59,
56467.6,40.71620070684395,3.9894641710492955,1.6887129851876754,0.93,-1.40,1.56,-0.09,0.63,0.56,
56467.6,41.02964050537123,3.9676188546686144,1.646667958984828,0.94,-1.37,1.54,-0.09,0.63,0.55,
56467.6,41.176308722370926,3.9589936562982633,1.630088437261254,0.95,-1.34,1.52,-0.08,0.63,0.54,
56467.7,40.898480411868604,3.914022496821296,1.5830220244448356,0.94,-0.52,1.13,0.15,0.76,0.52,
56467.7,39.885894749898746,3.9175922641507883,1.547979263997302,0.93,-0.45,1.10,0.12,0.76,0.49,
56467.7,40.72856245928648,3.909613351933199,1.5290444477706386,0.91,-0.38,1.07,0.09,0.75,0.49,
56467.8,40.82965221502628,3.8402900607106494,1.5075648296404494,0.80,-1.00,0.78,0.24,0.75,0.35,
56467.8,40.95762322205721,3.836330929786496,1.497484235389492,0.81,-0.99,0.77,0.25,0.75,0.36,
56467.8,41.20368066083417,3.8291226666916085,1.4794152164959942,0.81,-0.98,0.77,0.25,0.74,0.37,
56467.9,39.29579748522735,3.7776937732622184,1.3891176270214431,0.43,-0.45,0.40,0.34,0.79,0.23,
56467.9,40.55739266767527,3.7531790619197314,1.4030873135391573,0.41,-0.45,0.37,0.35,0.79,0.22,
56467.9,40.40707982519894,3.7524010123595186,1.3931619131112367,0.38,-0.45,0.36,0.35,0.80,0.21,
56468.0,39.23699529780536,3.784207468886975,1.3592153457860638,0.12,-0.38,0.16,0.29,0.78,0.35,
56468.0,39.17664865707632,3.7838935959795634,1.3622774667184308,0.13,-0.37,0.16,0.28,0.78,0.34,
56468.0,42.530206912264134,3.7956499921390083,1.37078307769092,0.14,-0.35,0.16,0.27,0.78,0.33,
56468.1,39.73479457603877,3.790265319475139,1.2999741686648019,0.17,-0.45,0.00,0.30,0.81,0.32,
56468.1,40.85216518129731,3.789551460428488,1.3111077993053248,0.16,-0.42,-0.00,0.30,0.81,0.32,
56468.1,41.115152924438945,3.7892685784282785,1.3135614134083324,0.15,-0.38,-0.00,0.30,0.80,0.32,
56468.2,41.89810258233659,3.762770913903569,1.2728377145589778,0.08,-0.21,0.06,0.33,0.80,0.24,
56468.2,41.89953937694304,3.7591067256060056,1.2643483996805625,0.07,-0.24,0.04,0.34,0.81,0.24,
56468.2,40.743998331042576,3.7582326984706187,1.2486417307870774,0.07,-0.25,0.03,0.35,0.80,0.25,
56468.3,40.32617140270075,3.7767527534310217,1.2388930895638621,-0.12,0.18,-0.12,0.38,0.82,0.24,
56468.3,40.64051549869908,3.789106456464178,1.2355709099679004,-0.13,0.20,-0.13,0.39,0.82,0.24,
56468.3,41.0435744057459,3.8044711816739176,1.2317653617466853,-0.15,0.21,-0.15,0.39,0.82,0.24,
56468.4,41.00734812201345,3.7923613717714777,1.2857841672058965,-0.53,0.46,-0.55,0.37,0.81,0.21,
56468.4,41.46519745521538,3.7841445694823492,1.3072983425157088,-0.55,0.48,-0.58,0.36,0.82,0.20,
56468.4,40.75305387329887,3.799280801367331,1.3195923489192012,-0.58,0.50,-0.62,0.37,0.82,0.19,
56468.5,42.13635247621702,3.875398282012693,1.3679187445939143,-0.97,1.11,-1.06,0.27,0.77,0.30,
56468.5,42.068817430491194,3.87536291656218,1.3724400849316805,-0.98,1.13,-1.09,0.26,0.77,0.32,
56468.5,40.24369764323353,3.856444271245476,1.4100802900016016,-1.00,1.15,-1.11,0.24,0.77,0.32,
56468.6,39.06755431301018,3.9792876900649854,1.4959842319222407,-0.90,2.66,-1.48,0.09,0.66,0.43,
56468.6,41.3200338818835,3.9605398682333792,1.5799929638972352,-0.87,2.69,-1.50,0.06,0.67,0.43,
56468.6,41.543098103054376,3.9581508865188195,1.5912584337931222,-0.85,2.72,-1.53,0.03,0.67,0.44,
56468.7,40.50908786926707,4.061255574417979,1.7142184079262832,-0.53,2.27,-1.75,-0.39,0.57,0.48,
56468.7,40.44657093005537,4.069137684226728,1.7144416269454192,-0.50,2.27,-1.77,-0.45,0.56,0.46,
56468.7,40.29257127560861,4.080017463174001,1.7114843362248215,-0.47,2.24,-1.77,-0.49,0.55,0.43,
56468.8,40.07028949234083,4.11100067679136,1.8073340959259285,-0.86,-0.31,-1.63,-0.51,0.41,0.45,
56468.8,39.801945932328486,4.130830047945422,1.8025010401852468,-0.85,-0.30,-1.60,-0.47,0.39,0.46,
56468.8,39.64326676751047,4.112056456561889,1.8151274933660484,-0.85,-0.30,-1.58,-0.45,0.37,0.48,
56468.9,44.00165110538467,4.0852346712526995,1.8666744912235185,-0.29,2.07,-1.08,-0.89,0.42,0.50,
56468.9,43.83263738357527,4.081945941665019,1.8635582614142263,-0.27,2.01,-1.06,-0.89,0.43,0.48,
56468.9,43.2031237296564,4.0698997731397295,1.8520145557556587,-0.26,1.92,-1.05,-0.90,0.44,0.48,
56469.0,51.46332091888358,4.052552083566535,1.9777524540827287,-0.35,0.22,-0.43,-0.94,0.46,0.46,
56469.0,51.631486517434304,4.052086277892563,1.9795128581075376,-0.37,0.10,-0.42,-0.91,0.45,0.46,
56469.0,52.460906397049605,4.050504984065269,1.9870108456376567,-0.38,0.01,-0.41,-0.90,0.44,0.47,
56469.1,54.897657509223464,4.05420367012121,2.05881011946325,-0.27,0.00,-0.37,-0.65,0.38,0.61,
56469.1,56.60851702703402,4.0272133601490605,2.075844332373471,-0.27,0.03,-0.38,-0.65,0.38,0.62,
56469.1,56.838699844384195,4.028036585747998,2.0824630431927824,-0.26,0.06,-0.40,-0.65,0.38,0.63,
56469.2,58.40264805640237,4.070413423420895,2.1198663133653266,-0.06,0.17,-0.41,-0.78,0.29,0.56,
56469.2,58.292624747904426,4.075901905798824,2.1234383156682703,-0.06,0.12,-0.42,-0.78,0.30,0.55,
56469.2,61.475293411255876,4.066894284990068,2.158400994750333,-0.06,0.06,-0.42,-0.78,0.30,0.55,
56469.3,63.749582743732525,4.046738160248788,2.162349214041725,0.19,0.40,-0.02,-1.08,0.28,0.57,
56469.3,64.70431979396739,4.052204548978563,2.178780213928758,0.14,0.35,0.05,-1.05,0.32,0.51,
56469.3,65.76772688788932,4.064477715993315,2.17919832338376,0.10,0.21,0.10,-1.01,0.35,0.50,
56469.4,67.41071502365185,4.054912791487585,2.166077657258972,0.01,0.01,0.07,-0.82,0.24,0.53,
56469.4,67.44079625864451,4.0547513759823905,2.16488066049134,0.01,-0.02,0.07,-0.83,0.24,0.53,
56469.4,67.51338978306453,4.054365626797818,2.1620121849136247,0.01,-0.05,0.08,-0.83,0.24,0.52,
56469.5,67.82507058603035,4.0450258080102355,2.1035696975819507,-0.11,-0.86,0.28,-0.84,0.30,0.48,
56469.5,67.57423029528343,4.041904470761492,2.0997499452710553,-0.15,-0.82,0.31,-0.87,0.31,0.53,
56469.5,66.87649960935455,4.033186301876421,2.0887367002254145,-0.15,-0.78,0.36,-0.89,0.29,0.55,
56469.6,61.65833195927376,3.995829380161855,2.065065524631485,0.01,-1.65,0.69,-0.73,0.33,0.65,
56469.6,59.957639213031065,4.022852463716063,2.0145173313572737,0.02,-1.67,0.70,-0.73,0.33,0.66,
56469.6,59.72664899356066,4.026711470206367,2.007469091269672,0.04,-1.67,0.73,-0.74,0.32,0.66,
56469.7,56.60401575860144,4.03194639848611,1.987106199304517,-0.01,-2.05,0.96,-0.50,0.35,0.61,
56469.7,54.31642201029077,4.026645623857082,1.9316959475440816,-0.02,-2.05,0.96,-0.48,0.36,0.64,
56469.7,53.639406223410035,4.025127437250843,1.9136048001206376,-0.04,-2.04,0.96,-0.46,0.36,0.65,
56469.8,50.412080893373165,3.993192277442502,1.8289501089496354,0.24,-1.87,0.68,-0.23,0.52,0.75,
56469.8,49.81778798782619,3.99948922999867,1.8244210775770495,0.23,-1.85,0.69,-0.25,0.50,0.74,
56469.8,49.69560946401604,3.9778144039352394,1.8200717824026063,0.22,-1.77,0.70,-0.25,0.48,0.74,
56469.9,45.66906830667777,3.9941047978601167,1.764922874468996,-0.12,-0.56,1.03,-0.16,0.43,0.67,
56469.9,45.94950054135518,3.983185519144236,1.766606631084888,-0.14,-0.54,1.04,-0.15,0.43,0.68,
56469.9,46.383609173931255,3.9664971728176597,1.7691467513627865,-0.17,-0.51,1.06,-0.14,0.43,0.68,
56470.0,45.343319243301984,3.9730921909318977,1.811517808906275,-0.74,-0.21,1.32,-0.11,0.39,0.66,
56470.0,45.26131571220616,3.9073791837811513,1.8083238320287798,-0.77,-0.20,1.32,-0.12,0.38,0.68,
56470.0,45.043093810261304,3.897511349189992,1.8191047805220062,-0.78,-0.16,1.33,-0.13,0.36,0.69,
56470.1,45.278968627829855,3.7908740448267393,1.8712390597692836,-0.99,0.07,1.57,-0.08,0.26,0.73,
56470.1,45.26000552364085,3.783055973429047,1.874840489469175,-1.00,0.03,1.58,-0.07,0.25,0.74,
56470.1,44.600165918973886,3.773395608566271,1.9099978181857835,-1.01,-0.05,1.59,-0.04,0.23,0.74,
56470.2,44.03950953405362,3.6841966571910927,1.9553200814917504,-0.86,0.15,1.36,0.11,0.19,0.89,
56470.2,43.98940554269857,3.6536494813254494,1.9452562062466041,-0.86,0.17,1.37,0.12,0.19,0.89,
56470.2,43.98780740159709,3.6482643952407185,1.9435612159985431,-0.87,0.19,1.39,0.12,0.19,0.87,
56470.3,44.89751997605213,3.5094595126191415,2.022061343190847,-0.92,0.70,1.37,0.10,0.05,0.94,
56470.3,44.97406141321907,3.4945953335263975,2.0368564764704935,-0.91,0.66,1.35,0.09,0.05,0.95,
56470.3,44.68290612751145,3.4509464835398656,2.0674299582910636,-0.91,0.63,1.33,0.09,0.05,0.97,
56470.4,45.23307086634733,3.3598914505668844,2.1402918439774616,-0.60,0.65,1.05,0.05,-0.00,1.03,
56470.4,44.63924842557276,3.327819266489683,2.1336610124532394,-0.58,0.62,1.04,0.06,-0.00,1.04,
56470.4,44.06712153068317,3.2938359895588243,2.1257729788305815,-0.56,0.59,1.02,0.05,-0.01,1.03,
56470.5,45.77022066802825,3.2310123792512746,2.16356583846589,-0.26,0.01,0.66,0.05,0.01,0.94,
56470.5,44.76182972131502,3.203145560036333,2.178819011263879,-0.27,-0.04,0.62,0.06,0.01,0.98,
56470.5,45.08807159327176,3.208970184263832,2.1797281929287333,-0.27,-0.07,0.59,0.07,0.01,0.99,
56470.6,46.276059685327574,3.124803186564609,2.1959030154227834,-0.23,0.15,0.49,0.07,-0.01,0.99,
56470.6,46.310415675094085,3.122731978517046,2.19244278380932,-0.22,0.17,0.47,0.05,-0.02,1.00,
56470.6,46.51532328168858,3.111385642407029,2.170157583596082,-0.22,0.16,0.44,0.04,-0.03,1.00,
56470.7,46.26059338140833,3.133099707109893,2.2323528791422094,-0.09,0.10,0.11,-0.01,-0.06,0.98,
56470.7,45.12485567843957,3.0841435557340686,2.203127516745714,-0.09,0.10,0.10,-0.00,-0.07,0.97,
56470.7,45.22531813044547,3.082145501541612,2.2015009022430725,-0.09,0.09,0.10,-0.01,-0.07,0.98,
56470.8,46.23431950402212,3.089379120103021,2.2145518244108926,0.01,0.08,-0.03,-0.08,-0.03,0.93,
56470.8,46.34163894382675,3.081941661830273,2.226355947731093,0.01,0.06,-0.04,-0.08,-0.03,0.92,
56470.8,45.994112666731596,3.0937183986839707,2.244638411547114,0.02,0.05,-0.04,-0.08,-0.04,0.93,
56470.9,46.450892348802086,3.064221749729772,2.2153598567124932,0.02,-0.06,0.01,-0.03,-0.03,0.91,
56470.9,46.610443035869125,3.0646358548785706,2.2127893497114015,0.01,-0.05,-0.00,-0.04,-0.03,0.92,
56470.9,46.722313726954916,3.0649231059897017,2.2110004003468653,0.01,-0.03,-0.02,-0.05,-0.03,0.92,
56471.0,46.92117858707302,3.10996971103473,2.2438618329973568,-0.00,-0.02,-0.06,-0.06,-0.04,0.94,
56471.0,46.96850966339043,3.106376866150746,2.237086258854176,0.00,-0.01,-0.07,-0.05,-0.04,0.94,
56471.0,47.106116375689474,3.0971242528259397,2.218452272314856,0.00,0.00,-0.07,-0.06,-0.04,0.94,
56471.1,46.44608702571186,3.087330296886367,2.211134816017508,-0.00,-0.03,-0.02,-0.07,-0.04,0.93,
56471.1,46.52408623498155,3.081304712851907,2.215790732067953,-0.00,-0.03,-0.02,-0.07,-0.04,0.93,
56471.1,46.837235187401916,3.0592824339977054,2.2316966647179965,-0.00,-0.02,-0.01,-0.07,-0.04,0.92,
56471.2,46.56290046807651,3.0835676771262572,2.1956950062524125,0.00,-0.02,-0.01,-0.06,-0.05,0.94,
56471.2,45.44567086093019,3.0907144969905507,2.213543932067972,0.00,-0.00,-0.01,-0.06,-0.06,0.94,
56471.2,45.37384488887844,3.0907144969905507,2.211426979075007,0.01,0.01,-0.00,-0.06,-0.05,0.93,
56471.3,45.9858206407149,3.0940744744164412,2.21997727869667,0.04,0.02,-0.02,-0.07,-0.05,0.93,
56471.3,46.792593431012136,3.101096167160029,2.227842174677295,0.04,0.02,-0.01,-0.07,-0.05,0.93,
56471.3,44.829705553349335,3.099137296381963,2.2334576054434394,0.04,0.01,-0.01,-0.07,-0.05,0.93,
56471.4,46.81637106824919,3.114978879664419,2.223142645774524,0.05,-0.01,-0.03,-0.06,-0.04,0.92,
56471.4,47.132643677179836,3.1151423832614413,2.2238905903851007,0.05,0.00,-0.03,-0.06,-0.04,0.91,
56471.4,47.2868216314017,3.115219872705751,2.224325066126794,0.04,0.00,-0.03,-0.05,-0.04,0.92,
56471.5,44.469762760779375,3.1185953061867218,2.2111569235253525,0.01,0.03,-0.03,-0.07,-0.03,0.93,
56471.5,44.80344071608786,3.106719830680506,2.213960884776746,0.01,0.04,-0.03,-0.07,-0.03,0.92,
56471.5,45.41953434371602,3.0857878227295195,2.218660627003735,0.01,0.04,-0.03,-0.08,-0.04,0.92,
56471.6,46.52418403368296,3.084534569223927,2.196825795331507,0.02,0.03,0.01,-0.07,-0.04,0.92,
56471.6,45.60018640312778,3.1048282529458033,2.2250285045140457,0.02,0.03,0.01,-0.07,-0.04,0.91,
56471.6,45.85129551059599,3.1081621306861904,2.2208352099533633,0.02,0.03,0.01,-0.07,-0.04,0.92,
56471.7,45.26381667513247,3.0813847505781062,2.2074581767255212,0.03,0.00,-0.04,-0.07,-0.04,0.93,
56471.7,45.182556368581004,3.063486262090488,2.1904522618052993,0.03,0.01,-0.04,-0.08,-0.05,0.93,
56471.7,44.89669141484704,3.0751527630719564,2.1999517056420643,0.03,0.01,-0.04,-0.09,-0.05,0.92,
56471.8,46.5470181644324,3.068910592980763,2.211394634568044,0.02,-0.02,0.01,-0.07,-0.03,0.91,
56471.8,46.99462735249637,3.0656118853470478,2.206691153781659,0.02,-0.02,0.01,-0.06,-0.03,0.91,
56471.8,46.20522264852751,3.160950278368508,2.205852805465941,0.01,-0.03,0.01,-0.06,-0.03,0.92,
56471.9,45.4353133586641,3.1044796076305317,2.232548354720267,-0.00,0.01,0.02,-0.07,-0.04,0.92,
56471.9,44.68127348229905,3.109065560371046,2.2171326220832928,-0.01,0.01,0.03,-0.07,-0.04,0.92,
56471.9,45.9436459154038,3.135029991448493,2.2209475333870206,-0.00,0.01,0.03,-0.07,-0.04,0.92,
56472.0,44.858094029951836,3.0796499080910635,2.2329638377716177,0.01,0.00,0.00,-0.06,-0.03,0.93,
56472.0,45.76001092657213,3.0961818668287773,2.223727594890114,0.01,0.01,0.00,-0.06,-0.04,0.92,
56472.0,46.88248500239722,3.115219872705751,2.2129785381819556,0.02,0.02,0.00,-0.06,-0.03,0.93,
56472.1,45.9266317075398,3.094351080354176,2.2333237227611713,0.01,-0.01,-0.00,-0.07,-0.04,0.93,
56472.1,46.84553874169877,3.119647568952086,2.218110001949774,0.01,-0.02,-0.01,-0.07,-0.04,0.93,
56472.1,47.00466040724047,3.110833127519324,2.2102402701778363,0.01,-0.02,-0.01,-0.07,-0.04,0.93,
56472.2,46.46750369882161,3.1109341359195124,2.2368031896952627,0.00,0.03,-0.01,-0.08,-0.04,0.91,
56472.2,46.35895059209171,3.072708087282888,2.226068809312586,0.00,0.03,-0.01,-0.07,-0.04,0.92,
56472.2,45.6655351441325,3.0989305900851294,2.2211770573481604,0.00,0.03,-0.01,-0.07,-0.04,0.92,
56472.3,45.74423460940187,3.0802391778980143,2.245643744974136,0.02,-0.02,0.01,-0.08,-0.06,0.93,
56472.3,46.26724219142525,3.0902296111809204,2.2284120991447756,0.02,-0.02,0.01,-0.08,-0.06,0.94,
56472.3,46.33452060828945,3.0909685513661844,2.2253854157133195,0.03,-0.01,0.02,-0.08,-0.06,0.93,
56472.4,44.66661169150846,3.1172693043945157,2.2280827608044556,0.02,-0.00,0.01,-0.06,-0.04,0.91,
56472.4,44.36063344903903,3.123092060382122,2.2274263962814347,0.02,-0.00,0.01,-0.06,-0.03,0.92,
56472.4,46.31273906820887,3.120267593023528,2.214361041610365,0.02,-0.00,0.01,-0.06,-0.02,0.92,
56472.5,45.493480851656095,3.0863065849892375,2.2083732138019503,-0.02,-0.03,0.03,-0.08,-0.04,0.92,
56472.5,45.60256242800398,3.111164858889795,2.2260943720375748,-0.01,-0.03,0.03,-0.07,-0.04,0.93,
56472.5,45.725976206091,3.1329384866201653,2.2414887274957067,-0.01,-0.03,0.02,-0.07,-0.04,0.93,
56472.6,46.36508708069036,3.1241509773807703,2.2284173889474452,0.02,-0.02,0.01,-0.07,-0.04,0.93,
56472.6,47.48425633828543,3.092114866601956,2.234443037573029,0.02,-0.02,0.01,-0.07,-0.04,0.94,
56472.6,46.40085451799353,3.109566367820834,2.234918297671232,0.02,-0.02,0.01,-0.08,-0.04,0.93,
56472.7,44.3485929878277,3.0852592433152752,2.199185962181698,0.01,0.04,0.02,-0.07,-0.03,0.91,
56472.7,44.59469699414942,3.0922568538747353,2.1985022850853086,-0.00,0.04,0.02,-0.07,-0.03,0.91,
56472.7,45.809891944862734,3.124116616319588,2.1940950114670397,-0.01,0.04,0.02,-0.07,-0.03,0.90,
56472.8,45.60018640312778,3.1048282529458033,2.2250285045140457,-0.02,0.10,0.01,-0.08,-0.04,0.92,
56472.8,46.831533180112736,3.1196416953143764,2.218068404719078,-0.02,0.10,0.00,-0.08,-0.03,0.93,
56472.8,46.85115366775935,3.11774937015021,2.219625686940847,-0.02,0.09,0.00,-0.08,-0.03,0.94,
56472.9,46.45324208276533,3.106433987498396,2.220718704461399,0.02,-0.01,-0.02,-0.07,-0.03,0.94,
56472.9,45.767763764466366,3.109372632416117,2.2360346743278003,0.02,-0.01,-0.02,-0.07,-0.04,0.94,
56472.9,45.69570439330157,3.103075532846115,2.2308847963111607,0.02,-0.00,-0.02,-0.07,-0.04,0.94,
56473.0,45.980445843858455,3.0947101425171466,2.193839098822589,0.03,-0.00,-0.02,-0.09,-0.03,0.91,
56473.0,46.428856328796215,3.080817355426512,2.2523445604162182,0.03,0.00,-0.02,-0.09,-0.04,0.92,
56473.0,46.202793205606085,3.098020472571204,2.254643712556566,0.03,0.01,-0.02,-0.09,-0.04,0.91,
56473.1,45.61773558606345,3.077724518632514,2.241972208761902,-0.00,0.00,0.00,-0.08,-0.04,0.92,
56473.1,45.522905223634396,3.074706928694127,2.2433468065770352,-0.00,0.01,0.00,-0.08,-0.05,0.92,
56473.1,45.614132678370645,3.0714108029739546,2.229221217514946,-0.00,0.01,0.00,-0.08,-0.05,0.92,
56473.2,45.489731808398254,3.0945585961230564,2.245615810503693,-0.00,0.00,0.00,-0.07,-0.05,0.92,
56473.2,45.59701963944573,3.116204789072848,2.2228724996574067,-0.00,0.00,0.00,-0.07,-0.04,0.93,
56473.2,45.68238829133171,3.1193068556198935,2.2214465169102997,0.00,0.01,0.00,-0.07,-0.04,0.92,
56473.3,45.7827052499085,3.103906509424885,2.251981025151229,-0.01,0.03,-0.06,0.01,0.02,0.96,
56473.3,45.58502495337696,3.1278635391319094,2.2674544535805854,-0.02,0.00,-0.08,0.02,0.01,0.98,
56473.3,45.958271290378185,3.1125230269429176,2.2372081000824093,-0.02,-0.02,-0.09,0.04,0.01,0.98,
56473.4,45.960258920071375,3.0837581320729406,2.2299976024970345,0.13,-0.26,-0.43,0.10,-0.02,0.99,
56473.4,47.55711828948427,3.115456541418284,2.219979835969406,0.12,-0.29,-0.46,0.10,-0.03,0.99,
56473.4,46.05701466660643,3.1274262663963683,2.19344671214383,0.11,-0.31,-0.49,0.10,-0.04,0.99,
56473.5,45.90052505146319,3.1751224878694786,2.215378607132165,0.14,-0.48,-0.92,0.15,-0.08,0.97,
56473.5,45.62206593305481,3.1817447862060972,2.200579302511956,0.14,-0.48,-0.92,0.14,-0.08,0.97,
56473.5,44.76684934189584,3.2020115329165884,2.151509390131111,0.14,-0.48,-0.94,0.14,-0.08,0.97,
56473.6,45.113230875209986,3.301354294750282,2.1464794266475167,-0.07,-0.72,-1.42,0.12,-0.08,0.98,
56473.6,45.25514445894522,3.3093306571699532,2.141029247026203,-0.10,-0.72,-1.43,0.10,-0.09,1.00,
56473.6,45.874086366923976,3.34054061842225,2.118552871303265,-0.10,-0.71,-1.43,0.08,-0.11,0.98,
56473.7,45.28767381970507,3.39528451487322,2.041535341432247,0.06,-0.40,-1.71,0.15,-0.12,1.00,
56473.7,44.08939328228502,3.4471937647593793,2.0180936532800215,0.08,-0.31,-1.71,0.15,-0.11,1.00,
56473.7,44.3677382790694,3.45292198412085,2.0153358517486186,0.10,-0.25,-1.71,0.16,-0.11,0.99,
56473.8,45.360181877942246,3.572561653447922,1.9726140220718789,0.47,0.06,-1.83,-0.01,-0.10,0.96,
56473.8,45.45918719026991,3.5835599865849237,1.9585841075737604,0.50,0.08,-1.81,-0.00,-0.09,0.95,
56473.8,44.94534569897088,3.614151343012713,1.9558050836477887,0.52,0.10,-1.79,-0.01,-0.09,0.95,
56473.9,45.985790196537884,3.6704037871341115,1.9335951266515086,0.63,0.35,-1.57,-0.08,-0.01,0.91,
56473.9,46.45864182259314,3.686725923661138,1.9419471912618216,0.65,0.40,-1.56,-0.09,-0.00,0.92,
56473.9,47.00242653310571,3.7499243538347993,1.9422388771329648,0.67,0.46,-1.54,-0.09,0.01,0.92,
56474.0,46.922410424018075,3.825818644223623,1.8964094892496333,0.83,0.72,-1.17,-0.11,0.15,0.87,
56474.0,47.235940765480684,3.8513562237800874,1.8917142717575126,0.83,0.72,-1.17,-0.11,0.16,0.87,
56474.0,47.99269944481139,3.902846902662969,1.8816587695735454,0.82,0.72,-1.18,-0.11,0.16,0.87,
56474.1,50.38601095542293,3.8956821272601734,1.8722491262916618,0.72,0.66,-1.04,-0.21,0.33,0.77,
56474.1,49.356801962850064,3.9697328125813014,1.8337604406085162,0.70,0.63,-1.01,-0.23,0.35,0.76,
56474.1,49.38471929655974,3.976927022867697,1.8296262412385362,0.67,0.61,-0.97,-0.24,0.36,0.76,
56474.2,51.03245046046682,4.036546092885859,1.8079619580663437,0.45,0.33,-0.75,-0.30,0.37,0.78,
56474.2,52.27781651905519,4.081858842217338,1.8022077830253633,0.43,0.23,-0.72,-0.29,0.36,0.77,
56474.2,52.01779503208493,4.07404876025493,1.79056341591805,0.41,0.11,-0.69,-0.27,0.36,0.77,
56474.3,51.80180788350924,4.0623374043672245,1.7481666011830772,-0.01,0.46,0.20,-0.17,0.45,0.72,
56474.3,51.48340800685207,4.060200371969506,1.7745995569262556,-0.03,0.49,0.18,-0.17,0.48,0.73,
56474.3,51.380370765497595,4.059570258077969,1.7829709538196141,-0.03,0.52,0.16,-0.16,0.49,0.73,
56474.4,50.27893395846813,4.039048419168065,1.7905445804459288,-0.09,0.87,-0.13,-0.15,0.37,0.76,
56474.4,51.04072981453145,4.021612505898199,1.7944396355687977,-0.09,0.85,-0.17,-0.14,0.37,0.76,
56474.4,49.715424165946736,3.9919411745961364,1.8131269165764983,-0.09,0.85,-0.21,-0.14,0.37,0.78,
56474.5,51.190110373000756,3.9979193348534836,1.8512704544795515,-0.40,0.52,-0.49,-0.38,0.12,0.84,
56474.5,51.101566512192164,3.994038183333247,1.853195649839887,-0.41,0.52,-0.44,-0.38,0.08,0.85,
56474.5,50.97664269054995,3.988462871033261,1.8559503984416765,-0.41,0.53,-0.39,-0.38,0.05,0.86,
56474.6,53.20367468511926,3.9788775927297575,1.9099443726227003,0.07,-0.55,-0.17,-0.34,0.17,0.91,
56474.6,51.554834884809786,3.953925205635041,1.8969855348673677,0.06,-0.42,-0.15,-0.35,0.20,0.92,
56474.6,52.42883653105417,3.9441937266294698,1.8925578616481766,0.05,-0.32,-0.12,-0.36,0.22,0.93,
56474.7,53.32729695006114,3.930080694794277,1.9067421966369673,0.20,0.44,0.09,-0.38,0.24,0.97,
56474.7,53.74409083797027,3.94313402608047,1.8765965330860659,0.22,0.50,0.10,-0.38,0.24,0.93,
56474.7,53.38327547088132,3.9544250800098877,1.8842399185678784,0.24,0.57,0.11,-0.39,0.26,0.92,
56474.8,53.729508652136396,3.9672825491340697,1.9161693223367497,0.23,0.37,0.35,-0.48,0.28,0.92,
56474.8,52.88762804286083,3.980228445597825,1.9048390518027605,0.24,0.29,0.37,-0.47,0.28,0.95,
56474.8,52.746470024068906,3.9821825424082435,1.902958918303866,0.25,0.21,0.39,-0.45,0.29,0.98,
56474.9,51.42019058696691,3.9537316371563014,1.8664082158064907,0.81,-0.38,0.58,-0.48,0.41,1.01,
56474.9,51.041133412180415,3.953645404937872,1.8486461579813505,0.82,-0.44,0.58,-0.47,0.41,1.01,
56474.9,48.530532657287,3.934046697489473,1.814068036921383,0.83,-0.49,0.59,-0.47,0.41,1.00,
56475.0,44.926880595029075,3.9840033055113784,1.7378422969825476,1.23,-1.44,1.10,-0.38,0.38,0.90,
56475.0,44.02115173413799,3.973495288388284,1.6999568649283012,1.25,-1.49,1.10,-0.36,0.38,0.90,
56475.0,43.22933379084161,3.963135489283447,1.6622970941076773,1.27,-1.54,1.11,-0.33,0.38,0.90,
56475.1,41.326947625006135,4.012817578887466,1.5710382996642294,1.53,-1.42,1.34,-0.19,0.52,0.72,
56475.1,40.80396794430659,4.018686973247105,1.5320649195109954,1.55,-1.37,1.35,-0.20,0.53,0.72,
56475.1,39.95959083874609,4.00623472321511,1.5312460723010428,1.56,-1.32,1.36,-0.19,0.53,0.72,
56475.2,39.970620460533254,4.01528641270011,1.4226465640076764,1.44,-1.02,1.42,0.14,0.57,0.52,
56475.2,39.94680838314871,4.01554366980085,1.4207856033502426,1.43,-1.01,1.42,0.16,0.56,0.51,
56475.2,39.77309014899396,4.0159891973279205,1.4165641298995708,1.42,-1.00,1.42,0.18,0.56,0.50,
56475.3,40.05635405275922,3.9049568112430872,1.358246735338526,1.31,-0.70,1.10,0.30,0.56,0.35,
56475.3,39.05290898255852,3.8979781774051725,1.3150266553276238,1.32,-0.64,1.09,0.30,0.56,0.34,
56475.3,38.99121567738046,3.894307983115535,1.307979059112775,1.32,-0.59,1.08,0.30,0.57,0.31,
56475.4,39.10135163904184,3.8672978292477747,1.2591364033846562,0.95,-0.62,0.67,0.38,0.64,0.22,
56475.4,38.925616244319116,3.8574075356106654,1.2400786491606122,0.94,-0.60,0.67,0.40,0.65,0.23,
56475.4,39.70705227034613,3.852547210218115,1.2185289128596934,0.93,-0.58,0.66,0.41,0.66,0.24,
56475.5,38.97488935199175,3.7734377110468817,1.1573177732675513,0.65,-0.48,0.50,0.47,0.72,0.13,
56475.5,39.873102462687804,3.747935540111231,1.1532305994304528,0.63,-0.49,0.48,0.46,0.71,0.12,
56475.5,40.458881596010535,3.732072543564321,1.151000198633267,0.62,-0.51,0.47,0.46,0.71,0.10,
56475.6,40.051081133971906,3.7702838427906893,1.0619982486407824,0.26,-0.49,0.19,0.62,0.77,0.16,
56475.6,40.313593240990066,3.7568004977736873,1.0656267212900299,0.25,-0.40,0.19,0.61,0.79,0.16,
56475.6,40.93720190731164,3.726820911604374,1.074031818570066,0.25,-0.32,0.19,0.61,0.80,0.15,
56475.7,38.969659993384596,3.707191417152159,1.0562065872168624,0.05,-0.16,0.02,0.59,0.79,0.14,
56475.7,41.38395220372264,3.7281405456606365,1.0661238670754205,0.05,-0.19,0.01,0.58,0.79,0.14,
56475.7,41.27465323900371,3.7194945905520385,1.0582779536965028,0.05,-0.20,-0.00,0.58,0.78,0.15,
56475.8,40.01409876531021,3.722671288282884,1.0177112479526091,-0.01,-0.27,-0.02,0.50,0.73,0.18,
56475.8,41.391723810443075,3.707972739592179,1.014405446329986,-0.01,-0.27,-0.02,0.50,0.72,0.17,
56475.8,41.10856844989862,3.7088474031661707,1.0198522592088173,-0.01,-0.28,-0.02,0.50,0.72,0.17,
56475.9,40.5331543307451,3.724720365681564,1.0279045698470626,-0.12,0.31,-0.18,0.56,0.75,0.09,
56475.9,40.7802023045497,3.721364990299495,1.0341257142553826,-0.14,0.29,-0.19,0.55,0.75,0.10,
56475.9,39.87523667641359,3.7378695876472032,1.0302493096604004,-0.16,0.26,-0.21,0.55,0.75,0.09,
56476.0,40.90551796518411,3.78204921048367,1.0827678938174823,-0.55,0.68,-0.38,0.53,0.75,0.06,
56476.0,42.31073268096406,3.782201739597538,1.0813996278339817,-0.58,0.70,-0.38,0.51,0.75,0.06,
56476.0,42.88837138432748,3.7822399491813323,1.080912012033793,-0.61,0.72,-0.37,0.51,0.75,0.06,
56476.1,40.27837384999548,3.822676279138456,1.1166481932748364,-1.09,0.56,-0.64,0.49,0.70,0.17,
56476.1,40.16065861013736,3.822676279138456,1.1226897511599134,-1.11,0.61,-0.64,0.48,0.70,0.18,
56476.1,39.98897973192114,3.822676279138456,1.1317050476421817,-1.12,0.65,-0.65,0.47,0.70,0.18,
56476.2,39.5876773756683,3.8850719446459223,1.228436896097309,-1.44,-0.01,-0.85,0.34,0.67,0.39,
56476.2,39.94323096595967,3.8911779607399377,1.235586973266959,-1.45,0.00,-0.85,0.34,0.66,0.40,
56476.2,40.22266649539784,3.9123432460494736,1.2474604919215886,-1.46,0.03,-0.85,0.34,0.65,0.42,
56476.3,40.524170565231806,3.9933180633542156,1.3000043064864268,-1.55,0.70,-0.76,0.21,0.59,0.54,
56476.3,41.00800531603555,4.014387342340159,1.3507753756013752,-1.56,0.70,-0.77,0.20,0.58,0.54,
56476.3,40.62336642869471,4.011167551464151,1.35672575013024,-1.56,0.70,-0.78,0.20,0.58,0.54,
56476.4,39.706781536659456,4.040226988164918,1.4389509869565729,-1.69,1.18,-0.80,0.11,0.50,0.54,
56476.4,39.67935735366691,4.034593825294705,1.446482440520122,-1.71,1.18,-0.80,0.11,0.49,0.54,
56476.4,39.6463705778978,4.04030391648466,1.4588246516325754,-1.73,1.18,-0.80,0.10,0.49,0.56,
56476.5,39.784764671919326,4.0172314710866805,1.5066574730815192,-1.36,1.95,-0.83,-0.15,0.34,0.86,
56476.5,40.059661755935984,4.00820917191729,1.5188504130990441,-1.35,1.97,-0.84,-0.16,0.34,0.88,
56476.5,41.23159104376158,4.024731111316421,1.5790425245462865,-1.33,1.98,-0.86,-0.15,0.34,0.88,
56476.6,43.55330182661241,3.9963578452272266,1.665534713286946,-0.85,1.12,-0.54,-0.33,0.29,0.93,
56476.6,44.0867757950159,3.9568833163822292,1.6910767709407624,-0.82,1.05,-0.54,-0.32,0.29,0.96,
56476.6,44.69343575962806,3.918356557619556,1.71584464585901,-0.79,1.00,-0.54,-0.33,0.30,0.99,
56476.7,48.25675185919582,3.9097588947472484,1.7812286308859517,-0.36,1.06,-0.39,-0.37,0.27,0.96,
56476.7,49.64176971059755,3.8940935189432353,1.7975450650794524,-0.34,1.09,-0.39,-0.38,0.27,0.95,
56476.7,49.39048086423132,3.90544115665493,1.8162143023688258,-0.31,1.11,-0.40,-0.40,0.27,0.94,
56476.8,54.02401503035479,3.893479928053489,1.9146018234701732,-0.17,0.43,-0.22,-0.46,0.24,0.87,
56476.8,55.071757734795426,3.881899283098402,1.9432359442007983,-0.17,0.39,-0.22,-0.46,0.22,0.87,
56476.8,56.07619815929036,3.8865347718599814,1.94964808065756,-0.17,0.35,-0.21,-0.45,0.22,0.86,
56476.9,54.8248976287234,3.8907575563248313,1.9680290539436416,0.30,0.63,-0.25,-0.31,0.16,1.08,
56476.9,55.99549714039514,3.8871761395718556,1.9652638028481033,0.19,0.80,-0.27,-0.42,0.16,1.07,
56476.9,56.247650617603576,3.886957721123785,1.9645531769405107,0.19,0.85,-0.24,-0.53,0.16,1.07,
56477.0,58.16741871529112,3.8865244026058,1.9823700566825015,0.06,-0.33,0.03,-0.46,0.26,0.81,
56477.0,57.801963634464876,3.8880529221898454,1.9715638406512848,0.04,-0.42,0.01,-0.45,0.27,0.82,
56477.0,58.96508288809573,3.9010175974935954,1.9522329249454495,0.02,-0.50,-0.01,-0.42,0.27,0.83,
56477.1,58.42590606914026,3.884374928510489,1.9423074662342097,0.01,-0.14,0.08,-0.40,0.19,0.81,
56477.1,58.453723576860355,3.9004872610853196,1.9311301160313492,0.00,-0.13,0.08,-0.41,0.19,0.80,
56477.1,58.48135001861704,3.911270462618719,1.9236533964084943,-0.01,-0.13,0.08,-0.42,0.20,0.80,
56477.2,58.54164329774148,3.9267352585977116,1.9031443637148706,0.09,-0.29,0.11,-0.41,0.21,0.82,
56477.2,58.94562324719283,3.911416541318175,1.8964792679949252,0.09,-0.33,0.11,-0.42,0.22,0.87,
56477.2,58.31706268323191,3.9039239015921705,1.900121448759998,0.09,-0.37,0.12,-0.43,0.21,0.87,
56477.3,56.261646794241635,3.928985229979075,1.903217312514242,0.26,-0.35,0.33,-0.47,0.17,0.82,
56477.3,56.24700703148569,3.928983110804989,1.899359965658358,0.27,-0.37,0.36,-0.48,0.16,0.81,
56477.3,56.22155191739197,3.9289762544842874,1.8876982680928442,0.27,-0.41,0.38,-0.47,0.16,0.81,
56477.4,53.436191855333405,3.96684826794307,1.8555236518824707,0.31,0.11,0.60,-0.37,0.30,0.72,
56477.4,53.82955136354009,4.003658182282695,1.8404487375750624,0.26,0.16,0.64,-0.38,0.32,0.70,
56477.4,53.86117711301898,4.0078214331979956,1.8452979246121137,0.22,0.17,0.68,-0.38,0.33,0.70,
56477.5,52.38948367754735,3.9949019628699363,1.8448800836867774,-0.26,-0.13,0.76,-0.28,0.39,0.69,
56477.5,52.767281529371964,3.995703868565148,1.839327900336397,-0.30,-0.14,0.79,-0.26,0.38,0.71,
56477.5,50.33713241733184,4.035944294847162,1.8980384090553717,-0.35,-0.15,0.81,-0.24,0.38,0.72,
56477.6,51.707158111812724,3.9945151713195375,1.9408356086203664,-0.70,0.32,1.03,-0.28,0.30,0.83,
56477.6,50.37594664122948,4.0005931467632285,1.9635375183515864,-0.72,0.35,1.04,-0.26,0.29,0.83,
56477.6,49.805555914978,4.003312865732257,1.9739549812666586,-0.74,0.36,1.05,-0.25,0.27,0.84,
56477.7,49.269988837019234,3.995689150063976,2.0095397145640175,-0.85,0.23,1.41,-0.20,0.24,0.96,
56477.7,50.00000899999919,3.934740147865722,2.0348759057453605,-0.86,0.17,1.40,-0.19,0.24,0.98,
56477.7,49.38137098137313,3.932671651834485,2.061022373027913,-0.86,0.14,1.38,-0.18,0.23,1.00,
56477.8,47.95386741442237,3.8616936052620323,2.183566827534074,-0.95,0.47,1.86,-0.34,0.12,0.82,
56477.8,47.80728919317639,3.847705315594496,2.1934275811871897,-0.97,0.35,1.88,-0.30,0.12,0.87,
56477.8,47.5702858936122,3.821696682034038,2.2110909954130653,-0.98,0.22,1.88,-0.27,0.12,0.89,
56477.9,47.02036154688732,3.663704071882004,2.2704808077352423,-0.86,-0.06,1.79,-0.16,0.06,0.96,
56477.9,46.6549086377843,3.644361225583636,2.2861435189875388,-0.88,-0.05,1.78,-0.15,0.06,0.96,
56477.9,46.71247156809411,3.6137848831011645,2.2924636747831793,-0.90,-0.04,1.76,-0.15,0.06,0.99,
56478.0,46.971217782808225,3.4050628912705587,2.3208719035293193,-0.80,-0.72,1.56,-0.01,0.00,0.94,
56478.0,47.31712797708669,3.386641364348933,2.320704236239705,-0.79,-0.79,1.51,0.01,0.01,0.95,
56478.0,46.16752971515804,3.3446209852264284,2.3099106683567685,-0.78,-0.82,1.45,0.03,0.02,0.97,
56478.1,47.13920236915342,3.2850260537143794,2.305483421323357,-0.43,0.20,0.85,0.06,0.04,0.89,
56478.1,45.76104129060002,3.192731459841644,2.309136978360786,-0.44,0.22,0.80,0.06,0.03,0.90,
56478.1,45.44711431983333,3.1680824367605536,2.309472986197842,-0.45,0.25,0.74,0.06,0.03,0.92,
56478.2,46.04245649397955,3.1530830141130366,2.3126840269709534,-0.45,0.37,0.29,-0.08,-0.09,1.00,
56478.2,45.231815130503,3.1324131660927432,2.2986111673361838,-0.43,0.41,0.25,-0.11,-0.11,1.00,
56478.2,46.60234543453795,3.1250114075918134,2.3309338422121177,-0.42,0.47,0.21,-0.15,-0.11,1.02,
56478.3,46.282209324966324,3.0784761016777997,2.3726332334867752,-0.19,-0.23,-0.06,-0.15,-0.02,1.02,
56478.3,44.91539268446843,3.1215336159792915,2.335624395381332,-0.16,-0.19,-0.11,-0.17,-0.02,1.01,
56478.3,45.780086282138,3.107671093864408,2.3450914357883748,-0.13,-0.14,-0.15,-0.20,-0.04,1.01,
56478.4,46.20725159539355,3.1261299685302077,2.3466461820826505,0.08,-0.00,-0.08,-0.23,-0.04,0.94,
56478.4,46.83628187634027,3.090095016083183,2.3763809534262603,0.07,0.01,-0.08,-0.23,-0.04,0.94,
56478.4,46.211796113113806,3.1335681344769095,2.3645944157145697,0.07,0.02,-0.07,-0.22,-0.04,0.92,
56478.5,46.6968360812593,3.1184824135014195,2.360149989469087,0.05,0.04,-0.08,-0.20,-0.05,0.93,
56478.5,46.65089495390201,3.1140934748882807,2.363888840575796,0.05,0.07,-0.07,-0.21,-0.06,0.93,
56478.5,45.39530372186092,3.093552720742031,2.3827396455751177,0.05,0.09,-0.07,-0.22,-0.06,0.91,
56478.6,46.32713028021486,3.1217418710765283,2.356553915683054,0.02,-0.04,0.01,-0.21,-0.05,0.91,
56478.6,46.74807054841943,3.131302459907422,2.3566218068220914,0.02,-0.03,0.01,-0.21,-0.06,0.90,
56478.6,46.7411446158521,3.1307004973659103,2.3561648298390745,0.03,-0.02,0.01,-0.21,-0.07,0.91,
56478.7,45.94392234017466,3.123423847489127,2.3394879209291153,0.05,0.06,-0.02,-0.18,-0.02,0.92,
56478.7,46.15234555252853,3.157796303073501,2.3152072851853243,0.05,0.06,-0.03,-0.18,-0.01,0.93,
56478.7,45.422949045609094,3.158192396460414,2.324049519198625,0.06,0.05,-0.04,-0.18,-0.00,0.92,
56478.8,45.67445018826171,3.166312073786977,2.3156179428727035,0.02,0.02,0.05,-0.22,-0.04,0.88,
56478.8,46.87177082210571,3.198102841800845,2.3301793334947094,0.01,-0.01,0.05,-0.21,-0.03,0.88,
56478.8,46.417557023178205,3.1367705089293394,2.345220196795103,-0.00,-0.04,0.06,-0.20,-0.02,0.89,
56478.9,45.869835404108436,3.121945846904133,2.335900348214019,0.01,0.04,0.01,-0.21,-0.05,0.92,
56478.9,46.2952675767189,3.1142392852005174,2.3396606150014634,0.01,0.03,0.01,-0.21,-0.05,0.91,
56478.9,47.55455183260589,3.0921807301132147,2.3506739461827264,0.02,0.01,0.01,-0.21,-0.05,0.91,
56479.0,45.863516001283635,3.1270084552396633,2.341184858357755,0.03,0.06,-0.02,-0.20,-0.04,0.91,
56479.0,45.95833983076412,3.1370306414425664,2.344341866373085,0.02,0.07,-0.02,-0.20,-0.04,0.91,
56479.0,46.33469650272893,3.173957646260718,2.356390516652391,0.02,0.07,-0.01,-0.21,-0.05,0.91,
56479.1,45.36849347289372,3.1210972583143217,2.3674685824293698,0.03,-0.02,-0.01,-0.19,-0.05,0.93,
56479.1,45.15047951018904,3.1110371771907244,2.3410789646818397,0.03,-0.01,-0.01,-0.19,-0.05,0.92,
56479.1,45.44379385570707,3.1085367258074506,2.339111052248753,0.03,0.01,-0.01,-0.18,-0.04,0.92,
56479.2,46.57243283316859,3.1376828990755623,2.346473392472558,0.03,-0.05,-0.01,-0.19,-0.03,0.91,
56479.2,47.083004364632465,3.151604097660347,2.3358928273219015,0.03,-0.06,-0.02,-0.19,-0.03,0.91,
56479.2,47.31630797093112,3.1576356178097997,2.3311690463448596,0.03,-0.05,-0.02,-0.19,-0.03,0.91,
56479.3,46.38236841731996,3.1251607790324325,2.3541449792204276,0.02,-0.03,-0.01,-0.19,-0.03,0.92,
56479.3,46.08882944922772,3.1210972583143217,2.3826374822184326,0.01,-0.03,-0.01,-0.19,-0.04,0.92,
56479.3,47.02772054862961,3.1118503642033493,2.365147397519916,0.01,-0.03,-0.02,-0.19,-0.04,0.92,
56479.4,46.66717047347096,3.167304689289448,2.3423896058136857,0.02,0.02,-0.02,-0.20,-0.04,0.91,
56479.4,46.62669728814169,3.1693964915411375,2.3414392076044006,0.02,0.02,-0.02,-0.21,-0.04,0.92,
56479.4,47.04850794658636,3.127303658903986,2.346373736692654,0.02,0.01,-0.03,-0.21,-0.05,0.91,
56479.5,45.91598958968433,3.159635808101127,2.3316226371671998,0.01,0.02,0.01,-0.20,-0.04,0.90,
56479.5,46.83057227922802,3.189075732575496,2.3509471927048167,0.01,0.02,0.01,-0.20,-0.04,0.90,
56479.5,46.73414490498356,3.168482513985583,2.3545003871507113,0.01,0.02,0.00,-0.19,-0.04,0.91,
56479.6,45.927644180819904,3.140391452966323,2.330479792959818,0.01,0.00,0.00,-0.20,-0.04,0.92,
56479.6,45.6392166891589,3.137339945327105,2.3358921252075335,0.01,0.01,0.01,-0.20,-0.04,0.92,
56479.6,46.837448692259066,3.1122850866451874,2.3358950023281055,0.01,0.01,0.01,-0.19,-0.04,0.92,
56479.7,44.88929716536003,3.1428407028637912,2.346427555697669,0.03,0.00,-0.02,-0.19,-0.04,0.91,
56479.7,45.66937485887014,3.126501737698859,2.3298116225033345,0.03,0.01,-0.01,-0.19,-0.04,0.91,
56479.7,45.88206403378121,3.1221456740013007,2.3254235438816626,0.03,0.02,-0.01,-0.19,-0.04,0.90,
56479.8,47.03019987199714,3.142789899351183,2.3515332123701924,0.03,-0.02,-0.01,-0.20,-0.04,0.91,
56479.8,47.525236453909415,3.142777136305024,2.35128419528192,0.03,-0.02,-0.01,-0.20,-0.04,0.92,
56479.8,46.30518437497037,3.138917273528255,2.328396625754044,0.03,-0.02,-0.01,-0.20,-0.04,0.91,
56479.9,46.57578018670219,3.173957646260718,2.361551358598084,0.03,0.02,-0.00,-0.19,-0.03,0.91,
56479.9,46.57578018670219,3.173957646260718,2.361551358598084,0.03,0.03,-0.01,-0.19,-0.03,0.91,
56479.9,46.13095381628262,3.1180710841522603,2.326004113041397,0.02,0.03,-0.02,-0.20,-0.03,0.91,
56480.0,45.61576701097987,3.1161560063849554,2.3566528720448496,0.02,-0.04,-0.02,-0.19,-0.04,0.92,
56480.0,45.403040647075606,3.1464587952290923,2.3317348145048555,0.02,-0.03,-0.02,-0.19,-0.04,0.91,
56480.0,45.52655269180832,3.1482491362125242,2.3291545873500197,0.02,-0.03,-0.02,-0.18,-0.04,0.92,
56480.1,46.35426733322402,3.152199209276768,2.320004526727793,0.02,-0.01,-0.03,-0.20,-0.04,0.91,
56480.1,46.65468679564787,3.1574780878936863,2.3053331538660506,0.01,-0.01,-0.03,-0.20,-0.04,0.91,
56480.1,46.2332661619315,3.208572687034602,2.3180097899388517,0.01,-0.01,-0.03,-0.20,-0.04,0.90,
56480.2,46.828421925151396,3.1532582924923496,2.3464960210680283,0.02,-0.02,-0.02,-0.19,-0.04,0.91,
56480.2,45.865247192182444,3.142801842843264,2.3359964093353542,0.02,-0.01,-0.02,-0.20,-0.03,0.91,
56480.2,46.3188136722002,3.1398175075253816,2.3236711903989575,0.02,-0.01,-0.01,-0.19,-0.04,0.91,
56480.3,46.16047768383685,3.1531511192711372,2.321839887309038,-0.00,-0.01,0.01,-0.21,-0.04,0.90,
56480.3,46.87178895668481,3.1928523132895963,2.325189919571371,-0.00,-0.01,0.01,-0.20,-0.04,0.91,
56480.3,45.799006539443624,3.1826490297297223,2.325030873223427,-0.00,-0.01,0.02,-0.20,-0.03,0.91,
56480.4,45.898603464593556,3.1944454408673177,2.335298684812461,-0.02,0.01,0.02,-0.19,-0.03,0.91,
56480.4,45.93373596824016,3.183638077760062,2.337886450543272,-0.02,0.01,0.01,-0.19,-0.03,0.91,
56480.4,46.09192011621993,3.1479736061827235,2.346365665613999,-0.01,0.00,0.01,-0.20,-0.04,0.90,
56480.5,46.34059559392823,3.1529626004760245,2.3360184017352865,0.00,0.00,0.01,-0.20,-0.04,0.92,
56480.5,47.54992008405482,3.1778172246832646,2.3460482380249683,0.01,0.00,0.01,-0.20,-0.04,0.92,
56480.5,47.545384634052546,3.172225378403798,2.346141717955994,0.01,0.01,0.02,-0.20,-0.04,0.91,
56480.6,46.280126404321756,3.158347518847845,2.3345779579889196,0.01,0.01,0.01,-0.19,-0.04,0.91,
56480.6,46.34059559392823,3.1529626004760245,2.3360184017352865,0.02,0.00,0.02,-0.19,-0.04,0.90,
56480.6,45.85822826930844,3.1691996621198775,2.361864454717072,0.02,-0.00,0.02,-0.19,-0.04,0.90,
56480.7,45.36662760223643,3.164053774197035,2.3568477772998633,-0.00,0.01,-0.02,-0.19,-0.04,0.91,
56480.7,45.70192665522975,3.1526998796132992,2.353223844715274,-0.00,0.00,-0.03,-0.19,-0.04,0.91,
56480.7,45.84977535386624,3.148040215457099,2.351557357220977,-0.00,-0.00,-0.03,-0.20,-0.04,0.91,
56480.8,46.12104291969123,3.15796511132335,2.3256109201887427,0.01,-0.01,-0.02,-0.18,-0.03,0.92,
56480.8,46.0153311408274,3.1661704045959684,2.343133067880372,0.01,-0.01,-0.02,-0.18,-0.03,0.92,
56480.8,45.857288406533584,3.1801557095727406,2.3721743350471653,0.01,-0.02,-0.02,-0.18,-0.03,0.92,
56480.9,45.93586398447296,3.157672268225783,2.321639680864525,0.02,0.05,-0.03,-0.19,-0.03,0.93,
56480.9,46.57675815253784,3.1529626004760245,2.3412832344053944,0.02,0.04,-0.03,-0.20,-0.04,0.94,
56480.9,46.426441819290865,3.1496425691494876,2.3342439808692674,0.02,0.03,-0.02,-0.20,-0.04,0.94,
56481.0,46.34493499833612,3.147546736250934,2.330855282341181,0.13,-0.04,-0.07,-0.11,-0.04,0.98,
56481.0,46.11209602696455,3.1323170369095923,2.3308677805410003,0.14,-0.03,-0.08,-0.11,-0.04,0.99,
56481.0,45.971544459589346,3.1427913344660947,2.329273417187706,0.14,-0.02,-0.08,-0.11,-0.04,0.98,
56481.1,46.18821927721397,3.189615921900248,2.29553472127414,0.23,-0.17,-0.24,-0.07,-0.04,0.96,
56481.1,46.253556620004915,3.1918521029905484,2.2888170554926757,0.23,-0.20,-0.25,-0.07,-0.03,0.96,
56481.1,46.65750636285656,3.2242881313164298,2.339604800283431,0.22,-0.23,-0.27,-0.06,-0.02,0.97,
56481.2,46.07445713190769,3.2263113974351163,2.287314507179065,0.25,-0.43,-0.57,0.01,-0.01,0.98,
56481.2,45.280090547612645,3.27065781034086,2.275418537371793,0.25,-0.42,-0.59,0.02,-0.00,0.97,
56481.2,45.089345748192,3.2822581817229626,2.272033580097805,0.26,-0.41,-0.61,0.02,-0.01,0.97,
56481.3,47.71440243783841,3.325917062489492,2.2670082569018137,0.36,-0.53,-1.08,0.02,-0.01,1.02,
56481.3,46.37461913590235,3.334498116484716,2.244157431880777,0.37,-0.54,-1.10,0.02,-0.02,1.03,
56481.3,44.93964508093049,3.3442924782339367,2.2175338421061466,0.38,-0.54,-1.13,0.02,-0.02,1.03,
56481.4,45.53533353342215,3.4137927985743133,2.1870875480488747,0.63,-0.42,-1.43,0.01,0.00,0.93,
56481.4,45.214482193208845,3.4184468519804585,2.1807449090516795,0.64,-0.44,-1.46,-0.01,-0.01,0.93,
56481.4,44.69918343773184,3.451254283073967,2.1710929674382036,0.65,-0.47,-1.49,-0.03,-0.01,0.93,
56481.5,44.88387015398739,3.5747667671614787,2.079997872304241,0.91,-0.08,-1.59,-0.08,0.04,0.89,
56481.5,44.86436893571557,3.609350766957443,2.080240570037872,0.92,-0.06,-1.58,-0.07,0.06,0.89,
56481.5,45.05129298921398,3.6385875262652725,2.0630037841964466,0.93,-0.06,-1.59,-0.06,0.08,0.89,
56481.6,45.80200323129983,3.7427393577801826,1.9815795458002887,0.88,-0.04,-1.76,-0.10,0.12,0.87,
56481.6,46.01219512259766,3.7469277300844452,1.9781700150810464,0.89,0.01,-1.76,-0.12,0.11,0.87,
56481.6,48.700395275603256,3.778155297916906,1.9648997059729265,0.90,0.07,-1.75,-0.13,0.10,0.87,
56481.7,48.64525259467773,3.853828932030175,1.939895248044227,0.93,0.57,-1.54,-0.28,0.29,0.78,
56481.7,48.557608054763165,3.8601747705476246,1.9251779746376658,0.90,0.58,-1.52,-0.29,0.30,0.78,
56481.7,48.83903152192926,3.9034765201612807,1.893750205711177,0.86,0.60,-1.50,-0.30,0.29,0.77,
56481.8,50.344395914540485,3.995194930816377,1.8946351785444042,0.71,0.71,-1.12,-0.37,0.31,0.66,
56481.8,50.3874686802185,3.9742102177888996,1.874111177877769,0.68,0.67,-1.11,-0.37,0.32,0.68,
56481.8,50.444032352697576,3.959162276109292,1.8590469408777863,0.65,0.62,-1.09,-0.36,0.33,0.70,
56481.9,53.167039601617844,4.021509560447541,1.8507373856259985,0.33,0.84,-0.69,-0.41,0.33,0.71,
56481.9,52.446937946843,4.021634950357977,1.8690179331302597,0.32,0.83,-0.70,-0.40,0.34,0.73,
56481.9,52.60534003311831,4.036782638902595,1.852620842242488,0.30,0.83,-0.69,-0.41,0.34,0.72,
56482.0,54.75499703223442,4.073576358047263,1.88687218058254,0.05,0.78,-0.42,-0.44,0.36,0.74,
56482.0,54.887107775870284,4.072865362376495,1.8793850310742573,0.04,0.81,-0.38,-0.42,0.37,0.75,
56482.0,55.004488907724614,4.072239091004434,1.8726058934122956,0.03,0.84,-0.35,-0.39,0.39,0.74,
56482.1,55.81116554955648,4.065589958172898,1.9348037724089535,-0.05,1.34,-0.23,-0.42,0.33,0.71,
56482.1,56.905523457745296,4.0851918026666905,1.949520806731312,-0.06,1.34,-0.24,-0.42,0.32,0.74,
56482.1,57.0720675987825,4.094763465800204,1.9638646027209639,-0.07,1.34,-0.27,-0.43,0.31,0.77,
56482.2,59.835337385194045,4.08815331047182,2.091355079888128,0.06,2.52,-0.23,-0.83,0.25,0.55,
56482.2,60.016047020776035,4.094471851688638,2.0990569876685514,0.10,2.57,-0.22,-0.83,0.25,0.53,
56482.2,60.866465315475644,4.122932341564785,2.132903108924446,0.13,2.57,-0.21,-0.85,0.25,0.56,
56482.3,62.116600840677044,4.15954775879215,2.152117496017236,0.13,0.43,-0.02,-0.75,0.32,0.65,
56482.3,61.97672547013113,4.17479273630573,2.15689000089417,0.14,0.50,-0.03,-0.74,0.31,0.62,
56482.3,62.162951184769206,4.174285976069817,2.1558668866902924,0.13,0.59,-0.04,-0.76,0.30,0.60,
56482.4,63.60851829747333,4.174553453691261,2.1908197839897037,-0.04,0.54,0.19,-0.87,0.29,0.48,
56482.4,64.25789756909262,4.180896938412477,2.1868610178074106,-0.04,0.50,0.21,-0.89,0.29,0.49,
56482.4,63.37442465222071,4.149391921049004,2.1907426432324706,-0.04,0.46,0.22,-0.92,0.28,0.50,
56482.5,62.24821603869463,4.17313362394211,2.2065100424615895,0.28,1.02,0.87,-1.02,0.40,0.42,
56482.5,60.46296552436045,4.161225430941831,2.187526199906339,0.29,0.99,0.90,-1.00,0.42,0.41,
56482.5,59.40683462363569,4.153789665041127,2.175625354083405,0.31,0.94,0.93,-0.99,0.43,0.40,
56482.6,53.96632839095133,4.134952112006242,2.113909549078566,0.32,-0.07,1.27,-0.87,0.50,0.39,
56482.6,52.46478914472067,4.137187521989335,2.083591445531492,0.32,-0.12,1.29,-0.86,0.50,0.40,
56482.6,51.027751273204274,4.127526373905648,2.0597975410105462,0.32,-0.17,1.30,-0.84,0.49,0.40,
56482.7,47.12352278851826,4.135481078880328,2.017567610579773,0.33,-0.25,1.60,-0.75,0.56,0.34,
56482.7,47.05980875439253,4.11813320143807,2.010687592017965,0.34,-0.22,1.62,-0.73,0.57,0.35,
56482.7,46.2322625446776,4.1240562130878935,2.0019178825407415,0.36,-0.19,1.64,-0.72,0.59,0.35,
56482.8,43.24802192008323,4.110829984853753,1.9418095851315804,0.39,-0.37,1.90,-0.48,0.65,0.34,
56482.8,40.35927650491272,4.083553908723184,1.9208198700087415,0.38,-0.35,1.90,-0.48,0.65,0.34,
56482.8,40.4423181828144,4.0798660511194935,1.9145496657367185,0.38,-0.35,1.91,-0.48,0.65,0.34,
56482.9,40.80774803882224,4.026875958740762,1.8695264984420061,0.15,-0.91,1.73,-0.26,0.70,0.28,
56482.9,40.99417275662481,4.0159891973279205,1.8592088436544538,0.14,-0.96,1.73,-0.25,0.70,0.28,
56482.9,41.27054397509197,3.978650378606286,1.8698762899745405,0.12,-1.00,1.72,-0.24,0.69,0.28,
56483.0,40.39771033115615,3.9295197133303006,1.8204245305520552,-0.01,-1.42,1.47,-0.00,0.73,0.37,
56483.0,40.45256604963399,3.920724112988964,1.7890754704215872,-0.02,-1.44,1.43,0.00,0.73,0.36,
56483.0,40.49003210668028,3.91735514090639,1.777500852474572,-0.03,-1.45,1.39,0.02,0.73,0.38,
56483.1,39.59395155828729,3.855140884803209,1.7433954221500096,-0.16,0.08,0.26,-0.13,0.75,0.34,
56483.1,39.821518052429894,3.836724243433865,1.7661527142564297,-0.16,0.09,0.27,-0.15,0.75,0.33,
56483.1,40.18041064996723,3.811907257930913,1.796191945673232,-0.17,0.08,0.30,-0.15,0.75,0.33,
56483.2,40.60875890740814,3.8381514324064137,1.7310528883291998,-0.16,-0.47,0.20,0.06,0.82,0.47,
56483.2,39.40261158857367,3.8298039085813,1.739863563733497,-0.15,-0.44,0.19,0.05,0.82,0.46,
56483.2,40.13577207429801,3.838374589964019,1.7531902727952329,-0.13,-0.40,0.19,0.04,0.84,0.44,
56483.3,39.25009171963806,3.8188741178095005,1.7340681597387075,-0.10,-0.12,0.13,-0.01,0.84,0.48,
56483.3,40.49462927352218,3.7773108414522203,1.752058101217081,-0.10,-0.16,0.14,-0.01,0.84,0.49,
56483.3,40.51916089950531,3.787803510869161,1.7519471426405075,-0.10,-0.19,0.14,-0.01,0.84,0.49,
56483.4,41.580708267176014,3.8168306896849127,1.7595012766812166,-0.09,-0.39,0.06,0.08,0.83,0.49,
56483.4,40.135910354693586,3.8033620706897415,1.6896731535026737,-0.08,-0.37,0.06,0.06,0.82,0.51,
56483.4,39.93999749624429,3.7996533945219926,1.6804299469946675,-0.08,-0.33,0.06,0.05,0.82,0.51,
56483.5,42.307232242253804,3.8077899839732257,1.7162006364602649,-0.00,-0.16,-0.05,0.10,0.83,0.41,
56483.5,40.14629995404309,3.786200457439082,1.7099878972711107,-0.02,-0.18,-0.06,0.11,0.83,0.41,
56483.5,39.69615220647966,3.781533248436128,1.7085242439797685,-0.03,-0.20,-0.06,0.12,0.83,0.41,
56483.6,40.90728297015092,3.785686091648914,1.7088628593074522,-0.20,0.14,-0.39,0.13,0.80,0.42,
56483.6,40.36724662396483,3.7933518329145017,1.7127236414347684,-0.21,0.15,-0.41,0.13,0.80,0.41,
56483.6,39.88320072411441,3.800502113018515,1.7164850642597462,-0.22,0.16,-0.43,0.13,0.80,0.41,
56483.7,40.873173353680286,3.8472732271327432,1.761063854369006,-0.37,0.33,-0.81,-0.03,0.75,0.45,
56483.7,40.38433607229417,3.874763600587335,1.7568404177207333,-0.37,0.33,-0.82,-0.04,0.75,0.46,
56483.7,39.82577808405003,3.8858982223884277,1.765619650910951,-0.38,0.34,-0.82,-0.04,0.75,0.46,
56483.8,39.73547785040466,3.92975171554921,1.8290983076472187,-0.49,0.34,-0.99,-0.12,0.72,0.46,
56483.8,39.96304668065236,3.9353970517219325,1.8234568975628302,-0.50,0.34,-0.99,-0.12,0.72,0.48,
56483.8,40.9604455542173,3.9599692783596736,1.8000927821949984,-0.51,0.34,-0.99,-0.13,0.72,0.50,
56483.9,40.44936711495002,3.9787345205228504,1.8426150272664954,-0.54,0.68,-1.13,-0.22,0.66,0.51,
56483.9,40.43411678273683,3.976613499148987,1.8455455170151451,-0.54,0.70,-1.14,-0.22,0.66,0.52,
56483.9,40.45528272055456,3.960993799777646,1.8675545138616956,-0.54,0.73,-1.16,-0.22,0.66,0.53,
56484.0,40.049661671479825,4.008781306788562,1.9058731581759463,-0.55,1.27,-1.42,-0.32,0.58,0.56,
56484.0,40.23301256431092,4.012337508061464,1.8998184256208168,-0.55,1.32,-1.42,-0.35,0.58,0.57,
56484.0,40.39242627027993,4.04323480340942,1.9353180421007574,-0.55,1.38,-1.42,-0.36,0.57,0.57,
56484.1,40.66967666456177,4.0354779211473915,2.0161618612075918,-0.15,1.55,-1.36,-0.73,0.40,0.47,
56484.1,41.46287134292559,4.026204579441545,2.032482950274301,-0.13,1.44,-1.38,-0.75,0.41,0.46,
56484.1,41.93775029731567,4.020597111997201,2.0417852805370122,-0.12,1.33,-1.41,-0.77,0.42,0.45,
56484.2,44.0590887332001,4.041557449748021,2.0855189509650884,-0.22,0.41,-1.05,-0.89,0.36,0.51,
56484.2,45.43277341303302,4.025108739662523,2.1463754812534925,-0.22,0.44,-1.01,-0.89,0.35,0.49,
56484.2,46.115912654961086,4.0326536063604745,2.1674108756874744,-0.22,0.45,-0.98,-0.89,0.35,0.48,
56484.3,47.76085531059928,4.034796334864764,2.170344645030927,-0.19,0.51,-0.64,-0.85,0.38,0.49,
56484.3,50.308099745468425,4.052510941819184,2.174990836722646,-0.19,0.49,-0.63,-0.84,0.38,0.49,
56484.3,50.516113270915845,4.047368175097972,2.1791299426371293,-0.19,0.46,-0.62,-0.84,0.38,0.48,
56484.4,57.25853036884548,4.031777196141871,2.238642548366303,-0.09,0.11,-0.45,-0.87,0.31,0.49,
56484.4,57.7456188814355,4.03360314774449,2.2539172692672214,-0.08,0.11,-0.43,-0.88,0.31,0.50,
56484.4,59.313931753003864,4.03888286677427,2.299108430434992,-0.07,0.13,-0.42,-0.88,0.32,0.50,
56484.5,60.86609318824398,4.074775759218719,2.2798310322306303,-0.02,0.31,-0.31,-0.86,0.28,0.46,
56484.5,61.245362273399934,4.070439728264432,2.2820501648514484,-0.01,0.30,-0.30,-0.86,0.28,0.45,
56484.5,62.73768644124519,4.09456031868329,2.2933801372421803,-0.01,0.29,-0.30,-0.86,0.28,0.43,
56484.6,65.37762767185728,4.060437134004947,2.3161253813575966,-0.01,0.01,-0.28,-0.83,0.20,0.64,
56484.6,65.1194364226227,4.090037254281589,2.3352085532007836,-0.01,-0.00,-0.28,-0.89,0.21,0.67,
56484.6,65.03656048715983,4.101364324973879,2.342205682335426,-0.01,-0.00,-0.28,-0.93,0.24,0.66,
56484.7,68.32001829625048,4.150948393894495,2.3444733553731103,0.10,-0.24,-0.09,-0.92,0.29,0.30,
56484.7,68.86945186365288,4.131521488068687,2.342365976191951,0.09,-0.28,-0.11,-0.90,0.30,0.31,
56484.7,68.42800742386117,4.126255215979825,2.3439533700061643,0.08,-0.32,-0.13,-0.89,0.29,0.29,
56484.8,68.17123586968333,4.177783368095947,2.3150347743023807,0.15,0.22,0.24,-0.90,0.27,0.42,
56484.8,67.9191784402609,4.158836516249016,2.3052857981382875,0.16,0.24,0.23,-0.91,0.27,0.42,
56484.8,67.56591892367038,4.130332518093681,2.2897744436009075,0.16,0.23,0.23,-0.92,0.26,0.41,
56484.9,64.13559542095169,4.129358958491158,2.2564637354870665,0.12,-0.36,0.39,-0.95,0.24,0.41,
56484.9,65.17199168354455,4.119004118300704,2.2674917515284827,0.12,-0.41,0.41,-0.96,0.25,0.42,
56484.9,64.49643245947794,4.113057139010757,2.249901212791694,0.13,-0.47,0.42,-0.96,0.25,0.43,
56485.0,58.369905773437736,4.068185943468526,2.16276165676826,0.23,-0.98,0.75,-0.83,0.31,0.45,
56485.0,58.14187303484469,4.0649727875355,2.154025133947495,0.23,-1.02,0.78,-0.82,0.32,0.46,
56485.0,57.07195896410075,4.080387821309738,2.136683888974514,0.23,-1.05,0.80,-0.82,0.33,0.47,
56485.1,54.051742802614605,4.056937087622177,2.0671363033327124,0.11,-1.07,0.96,-0.71,0.41,0.48,
56485.1,51.839678818449485,4.061353499114714,2.053223093563203,0.11,-1.14,0.96,-0.71,0.41,0.48,
56485.1,51.40353100712051,4.061785531460048,2.049764023501771,0.11,-1.22,0.96,-0.69,0.41,0.49,
56485.2,48.62653390896785,4.0792458189245195,1.959968346222587,0.12,-1.97,1.02,-0.48,0.50,0.54,
56485.2,48.19189247165959,4.064611156898571,1.942868532139099,0.10,-1.99,1.02,-0.46,0.50,0.56,
56485.2,46.492976888988295,4.047186354949682,1.9478983403979848,0.08,-2.00,1.02,-0.47,0.50,0.59,
56485.3,46.17414319724839,4.000023528496586,1.8927398772138528,-0.24,-1.59,1.18,-0.39,0.43,0.54,
56485.3,45.410883056817994,3.9792838009678926,1.8572283204545457,-0.26,-1.50,1.21,-0.40,0.43,0.54,
56485.3,45.86717671712529,3.9818983904200724,1.871602534124628,-0.28,-1.42,1.24,-0.40,0.44,0.52,
56485.4,45.64017966660517,3.946063835249764,1.8596324357770302,-0.82,-0.82,1.62,-0.16,0.40,0.62,
56485.4,45.546671667642194,3.931527402844991,1.8609298594056967,-0.83,-0.79,1.65,-0.14,0.41,0.60,
56485.4,45.28050684345306,3.8734298025268776,1.8659152507660715,-0.84,-0.78,1.67,-0.12,0.42,0.57,
56485.5,45.66279995795264,3.7360429989684687,1.9400360184417116,-1.19,-0.75,1.65,0.13,0.32,0.80,
56485.5,45.48576370690065,3.7271827952334475,1.9328299348509903,-1.19,-0.75,1.62,0.13,0.32,0.82,
56485.5,44.552319804921495,3.68695899535071,1.890449461253629,-1.17,-0.72,1.60,0.12,0.31,0.82,
56485.6,45.06026742042261,3.562114454297226,1.9143998470988917,-1.02,0.19,1.39,0.19,0.21,0.85,
56485.6,44.39601446075988,3.529708552578345,1.9349012588340895,-1.02,0.26,1.37,0.18,0.21,0.85,
56485.6,44.49701225925174,3.523976543024431,1.937404465426003,-1.01,0.33,1.35,0.18,0.20,0.85,
56485.7,44.405272209502336,3.4256948893787,2.007216132206941,-0.93,0.57,1.04,0.19,0.13,0.97,
56485.7,44.06470923539607,3.424496299992696,2.0048124210409757,-0.92,0.58,0.99,0.19,0.14,0.99,
56485.7,45.248218749471235,3.4054788963760187,2.0375196340336688,-0.90,0.58,0.95,0.19,0.14,1.02,
56485.8,45.87559372912791,3.370678454504381,2.0831601407979843,-0.63,0.86,0.47,0.08,0.10,1.07,
56485.8,46.118967898252016,3.3423225448233747,2.141124140094817,-0.62,0.85,0.46,0.07,0.10,1.06,
56485.8,45.95389210937415,3.3442754394622134,2.130280848249564,-0.61,0.82,0.44,0.06,0.10,1.03,
56485.9,45.67667347782673,3.2823011780746496,2.1559898498987082,-0.27,0.47,0.30,-0.01,0.07,0.94,
56485.9,45.598002149217024,3.278341119766449,2.170887505597719,-0.25,0.49,0.30,-0.01,0.08,0.94,
56485.9,45.450331131907056,3.269164704427349,2.2044274243143436,-0.24,0.50,0.30,-0.02,0.08,0.94,
56486.0,45.11358997020742,3.265094830490985,2.2568801673215244,-0.52,-0.14,0.42,-0.09,-0.11,0.99,
56486.0,46.455269884050836,3.2208428545315897,2.2152890286554916,-0.55,-0.21,0.45,-0.08,-0.11,0.99,
56486.0,46.150785475439086,3.228472821148279,2.224071295833558,-0.57,-0.24,0.48,-0.06,-0.11,1.01,
56486.1,45.479141372721635,3.220279834381956,2.255131391193333,-0.32,0.35,0.35,-0.11,-0.07,0.93,
56486.1,46.72848916881435,3.1846530118350582,2.2381306834960486,-0.29,0.44,0.30,-0.11,-0.07,0.93,
56486.1,46.41551895648696,3.178510822272721,2.243454687080912,-0.26,0.50,0.25,-0.09,-0.07,0.93,
56486.2,45.22266024903887,3.1279996080985977,2.2455267376669843,-0.19,-0.19,-0.03,-0.07,0.02,0.99,
56486.2,46.74182923249795,3.1567882274563597,2.2332847203088217,-0.17,-0.19,-0.05,-0.06,0.02,1.00,
56486.2,47.25386862469569,3.1654104185472267,2.2294002728228244,-0.16,-0.19,-0.06,-0.06,0.02,1.00,
56486.3,45.75200323483114,3.1368533525803266,2.240479789768533,-0.01,-0.27,-0.09,-0.08,-0.07,0.95,
56486.3,45.42748727367606,3.1475399071753607,2.251235575526815,-0.01,-0.27,-0.09,-0.07,-0.07,0.96,
56486.3,46.16837553997325,3.181249986159248,2.2449505909654626,-0.00,-0.25,-0.09,-0.07,-0.07,0.95,
56486.4,45.64759029784595,3.152003236377131,2.2148848309843063,0.03,-0.02,-0.07,-0.07,-0.05,0.95,
56486.4,45.93902698142397,3.1595988928540395,2.21774624573466,0.04,-0.02,-0.06,-0.07,-0.05,0.94,
56486.4,46.34147710205189,3.1703499882647055,2.221739099984778,0.04,-0.02,-0.06,-0.07,-0.05,0.93,
56486.5,46.66873150193822,3.1949915274687584,2.235868025374871,0.12,-0.09,-0.01,-0.06,-0.03,0.91,
56486.5,46.13853703792525,3.203145560036333,2.220458353653764,0.12,-0.08,-0.01,-0.06,-0.02,0.90,
56486.5,46.29472108135009,3.194347143770484,2.2230521041949265,0.12,-0.06,0.00,-0.06,-0.02,0.91,
56486.6,46.32449675927413,3.1668357460211713,2.2077108311427978,0.04,-0.06,0.05,-0.06,-0.03,0.91,
56486.6,44.89361313149121,3.1858834450748956,2.222784328922722,0.04,-0.05,0.05,-0.05,-0.03,0.92,
56486.6,45.15127572948521,3.177470406812666,2.220102704386421,0.03,-0.04,0.04,-0.05,-0.03,0.92,
56486.7,46.40772564993893,3.160950278368508,2.211750844398794,0.03,0.01,0.05,-0.06,-0.02,0.93,
56486.7,45.529473970165746,3.2103538367200515,2.22622013810834,0.03,0.02,0.05,-0.05,-0.02,0.93,
56486.7,45.4418089428667,3.216743662470842,2.2285380854390193,0.03,0.02,0.05,-0.05,-0.01,0.93,
56486.8,46.096290523208054,3.182846065297365,2.23237868977229,0.06,0.08,-0.00,-0.08,-0.02,0.90,
56486.8,46.594412755179135,3.184246400130197,2.22219071840055,0.06,0.08,0.00,-0.08,-0.02,0.91,
56486.8,46.98667151437735,3.142661029251678,2.219575279768431,0.05,0.09,0.00,-0.07,-0.02,0.91,
56486.9,44.54346416703577,3.156873486884915,2.2007255242709487,0.03,0.03,0.02,-0.08,-0.01,0.94,
56486.9,45.57339355369534,3.164097774570582,2.215009770281159,0.03,0.02,0.03,-0.08,-0.02,0.94,
56486.9,46.548281386104904,3.1703499882647055,2.2275497528604262,0.03,0.01,0.03,-0.08,-0.01,0.93,
56487.0,45.48177986842643,3.174372310486705,2.2170743008999594,0.00,0.09,0.09,-0.11,-0.04,0.89,
56487.0,46.68881343534016,3.2020115329165884,2.2115349616533075,-0.01,0.09,0.10,-0.10,-0.04,0.88,
56487.0,45.86174985758829,3.205405404137367,2.2141052981670817,-0.01,0.08,0.10,-0.10,-0.04,0.89,
56487.1,45.15319036347266,3.1757555169201557,2.218403307103452,-0.05,0.01,0.05,-0.07,-0.03,0.94,
56487.1,45.49925054327819,3.171360532706621,2.218437174828537,-0.04,0.01,0.05,-0.07,-0.03,0.94,
56487.1,47.07803840433456,3.151717540743755,2.2189035433855855,-0.04,0.02,0.04,-0.08,-0.02,0.95,
56487.2,45.25301315934664,3.1618829915213817,2.2401906962942237,0.01,0.01,0.07,-0.07,-0.02,0.93,
56487.2,45.86469012214081,3.1478715773522183,2.216511924241212,0.01,0.01,0.07,-0.07,-0.02,0.92,
56487.2,45.9409164035721,3.155226932764993,2.2171697119424407,0.01,0.02,0.07,-0.07,-0.03,0.92,
56487.3,45.56644050175523,3.1615622593877974,2.2286437140837805,-0.00,0.00,0.03,-0.06,-0.04,0.93,
56487.3,45.31725168189263,3.161690449688384,2.2298254515690163,0.00,0.01,0.03,-0.07,-0.04,0.93,
56487.3,46.093471338140716,3.1567594212022363,2.212506550511992,0.00,0.02,0.03,-0.07,-0.04,0.94,
56487.4,45.68096540135728,3.1473193431002073,2.2096924206969777,0.02,0.06,0.01,-0.09,-0.03,0.93,
56487.4,45.9630601679218,3.1560016617476085,2.2138124575921796,0.02,0.05,0.01,-0.09,-0.03,0.93,
56487.4,46.13570634551941,3.1611288380855362,2.2161567351665337,0.02,0.04,0.01,-0.09,-0.03,0.93,
56487.5,46.56910349147813,3.189046824428089,2.2272051046248826,0.01,0.04,0.03,-0.12,-0.04,0.91,
56487.5,46.39315682296259,3.1759670037842027,2.2405350984195946,0.00,0.02,0.03,-0.12,-0.04,0.91,
56487.5,46.06960277666826,3.1475399071753607,2.2682773420249425,0.00,0.00,0.03,-0.12,-0.04,0.91,
56487.6,44.50385151871689,3.137551105156175,2.249533818176607,0.01,0.00,0.07,-0.10,-0.03,0.92,
56487.6,45.64419897423987,3.1279996080985977,2.2569892669469076,0.01,-0.01,0.08,-0.10,-0.03,0.92,
56487.6,45.61438150408267,3.135122982957385,2.2479237302780337,0.01,-0.02,0.08,-0.09,-0.03,0.91,
56487.7,47.20444576520309,3.1021808955396226,2.203413974910502,-0.03,-0.00,0.10,-0.07,-0.04,0.91,
56487.7,46.33391198679429,3.123955405297944,2.22186347042205,-0.04,-0.01,0.10,-0.07,-0.04,0.91,
56487.7,46.498578472895275,3.128595822480218,2.2237629938234633,-0.04,-0.02,0.10,-0.07,-0.04,0.91,
56487.8,44.75161784784993,3.106138408880925,2.2442183521621777,0.00,0.04,0.05,-0.07,-0.04,0.94,
56487.8,44.749472622590766,3.108424044467957,2.2442566000104196,0.01,0.04,0.05,-0.08,-0.04,0.94,
56487.8,45.43440216399903,3.118373943921536,2.251112396815322,0.01,0.04,0.05,-0.07,-0.04,0.94,
56487.9,46.215549331366816,3.1048282529458033,2.2421992279105325,0.02,0.03,0.04,-0.07,-0.04,0.94,
56487.9,47.01329492813708,3.1188006658477625,2.255410678710531,0.02,0.03,0.04,-0.08,-0.04,0.93,
56487.9,47.308356555686856,3.123786316576287,2.2601516555344303,0.02,0.02,0.04,-0.08,-0.04,0.94,
56488.0,45.544399216588644,3.1474275415247854,2.2304062029287937,-0.01,0.07,0.11,-0.10,-0.01,0.90,
56488.0,46.00217060096187,3.129114099995435,2.2406104341706867,-0.01,0.08,0.11,-0.09,-0.01,0.89,
56488.0,46.63529671825837,3.1048282529458033,2.2534479473887985,-0.01,0.09,0.11,-0.09,-0.01,0.90,
56488.1,46.86186616002397,3.112975029626393,2.2299376333681113,-0.10,0.09,0.10,-0.12,-0.06,0.92,
56488.1,47.26404658934739,3.09993851727141,2.274999274011937,-0.10,0.09,0.10,-0.12,-0.05,0.92,
56488.1,46.93840218840007,3.0944838835754336,2.2641700405568495,-0.10,0.09,0.10,-0.12,-0.06,0.91,
56488.2,46.638099232280034,3.1154529804727757,2.273741089423489,-0.07,-0.01,0.09,-0.10,-0.06,0.94,
56488.2,47.73388419142109,3.133099707109893,2.271042525892934,-0.07,-0.00,0.09,-0.10,-0.06,0.94,
56488.2,47.90472732413786,3.1068121642802424,2.274594141617218,-0.07,0.01,0.08,-0.10,-0.06,0.94,
56488.3,45.90907644464219,3.078893412438274,2.2545190746576624,-0.04,0.05,0.05,-0.11,-0.07,0.93,
56488.3,45.935059595041345,3.0737331053808967,2.2568686075301163,-0.04,0.04,0.05,-0.10,-0.07,0.92,
56488.3,45.947202308736934,3.045391804164622,2.26568527059538,-0.03,0.03,0.05,-0.10,-0.07,0.92,
56488.4,46.078908407209475,3.070183927083805,2.27293064185224,-0.00,-0.00,-0.02,-0.11,-0.06,0.91,
56488.4,46.590778057465414,3.060490847833738,2.277702945282143,-0.00,-0.01,-0.02,-0.11,-0.06,0.92,
56488.4,46.59688938115934,3.0893179937137467,2.26579717937381,-0.00,-0.01,-0.02,-0.11,-0.06,0.93,
56488.5,46.87734954111634,3.0714108029739546,2.263311084173753,0.04,-0.03,-0.05,-0.07,-0.06,0.97,
56488.5,45.97698663461971,3.08071987187717,2.259216357891962,0.05,-0.04,-0.06,-0.07,-0.06,0.96,
56488.5,45.1933678762714,3.0887243452481594,2.255435675401782,0.06,-0.04,-0.07,-0.07,-0.06,0.97,
56488.6,46.063037242457206,3.086109605967002,2.2484500669109493,0.20,-0.01,-0.28,-0.02,-0.03,0.97,
56488.6,47.295161486139364,3.106169161763237,2.2241900369693615,0.21,-0.01,-0.30,-0.01,-0.03,0.97,
56488.6,46.7156954352603,3.0981654784885944,2.240528930139243,0.22,-0.02,-0.33,-0.00,-0.03,0.97,
56488.7,46.77537493168815,3.109065560371046,2.2743368582195727,0.34,-0.34,-0.92,0.18,-0.01,1.06,
56488.7,46.799668802246885,3.1207159543222294,2.266357696637992,0.34,-0.40,-0.99,0.20,-0.01,1.06,
56488.7,46.985517981607906,3.16562908239201,2.2338277151086317,0.34,-0.47,-1.05,0.20,-0.02,1.05,
56488.8,45.506440203558,3.3495228371444865,2.1542517998693773,0.64,-0.88,-1.96,0.19,-0.12,1.06,
56488.8,45.60106796995,3.3571978661771,2.1471179096123176,0.66,-0.85,-1.96,0.19,-0.11,1.05,
56488.8,45.99116110732583,3.388233262742843,2.1126806466555177,0.68,-0.83,-1.97,0.19,-0.10,1.04,
56488.9,45.93223377977605,3.5005086980525144,2.0732518520017447,0.84,-0.06,-2.41,0.08,-0.05,0.95,
56488.9,46.0092219017014,3.5136717436358746,2.083022750178552,0.85,0.03,-2.39,0.07,-0.05,0.94,
56488.9,45.18674473781,3.621408691838167,2.0221564640819008,0.86,0.10,-2.37,0.06,-0.05,0.94,
56489.0,45.08759141936948,3.715668769264372,1.9984624533954343,0.89,0.35,-2.08,-0.14,0.08,0.86,
56489.0,45.96999238633828,3.7482220646036213,2.0206667867066073,0.88,0.33,-2.08,-0.17,0.08,0.84,
56489.0,46.48941707528715,3.7659198736462907,2.0325041189676085,0.88,0.30,-2.08,-0.21,0.08,0.82,
56489.1,48.36493978079576,3.8885183027939147,1.9222443057451557,0.60,-0.36,-1.99,-0.13,0.09,0.87,
56489.1,48.828140451997555,3.8928976204902797,1.8688739102674845,0.61,-0.26,-1.94,-0.11,0.09,0.87,
56489.1,49.44158371249853,3.9336861491678534,1.8500921960591927,0.61,-0.16,-1.90,-0.09,0.09,0.87,
56489.2,50.14748747444881,4.004847306530211,1.8643403913427916,0.62,1.00,-1.30,-0.22,0.28,0.79,
56489.2,50.179578515567464,4.013824497271923,1.8535468021645805,0.60,0.94,-1.32,-0.23,0.28,0.77,
56489.2,50.280130270316526,4.03395375062105,1.8288202403333766,0.57,0.88,-1.34,-0.26,0.28,0.77,
56489.3,53.447060723673104,4.088109605322958,1.8101317057935085,0.31,0.50,-0.95,-0.34,0.32,0.84,
56489.3,54.87852312152724,4.0889461544253765,1.8225426596177363,0.28,0.47,-0.93,-0.33,0.31,0.84,
56489.3,55.049985467754674,4.090854120063467,1.819304551332292,0.24,0.44,-0.91,-0.33,0.30,0.84,
56489.4,55.647890346355446,4.115547449048783,1.792564082992424,0.12,0.12,-0.40,-0.29,0.34,0.80,
56489.4,55.66018145856156,4.112394708356319,1.7879124151734633,0.10,0.14,-0.37,-0.28,0.33,0.81,
56489.4,55.268208764171106,4.114193154924258,1.795783538000183,0.08,0.16,-0.34,-0.27,0.34,0.83,
56489.5,55.83747308036065,4.085486759214255,1.802641798672049,0.00,1.07,-0.08,-0.42,0.28,0.75,
56489.5,55.575048358053635,4.066435438933759,1.822477606710578,-0.00,1.04,-0.07,-0.43,0.29,0.74,
56489.5,55.495616043071365,4.060090991122465,1.8289910001459087,-0.01,1.02,-0.06,-0.42,0.29,0.75,
56489.6,57.148469795787186,4.0548976209442955,1.886430638522121,-0.10,0.98,0.25,-0.51,0.27,0.81,
56489.6,57.751622488030584,4.044493518834814,1.9065856917835873,-0.10,0.97,0.25,-0.50,0.25,0.81,
56489.6,56.75083964136566,4.034363110836159,1.9239919854239618,-0.08,0.98,0.26,-0.51,0.24,0.81,
56489.7,55.73625839612846,4.013438742276814,1.9547848255302924,0.07,-0.13,-0.01,-0.37,0.30,0.90,
56489.7,55.788502399688056,4.023156737486969,1.9596310409743098,0.09,0.07,-0.03,-0.39,0.29,0.89,
56489.7,55.8787347745097,4.0370724899392165,1.9667156396852017,0.12,0.31,-0.02,-0.40,0.28,0.84,
56489.8,55.513970313786785,4.0118014964065365,1.9767069609867898,0.27,-0.62,0.54,-0.71,0.31,0.85,
56489.8,53.795681053407996,4.031725914923521,1.969403675029856,0.30,-0.70,0.55,-0.71,0.31,0.85,
56489.8,53.468885344656286,4.019386094074575,1.9618429664280417,0.33,-0.75,0.57,-0.69,0.30,0.86,
56489.9,51.517800807099675,3.9931530267934843,1.9052318934257237,0.86,-0.79,1.08,-0.53,0.50,0.84,
56489.9,51.26967329718417,3.9872011219079657,1.899073647695479,0.87,-0.82,1.05,-0.50,0.51,0.83,
56489.9,48.276448709489806,3.965479986338818,1.8290619060481608,0.88,-0.85,1.04,-0.48,0.51,0.83,
56490.0,45.73387475384084,3.9941047978601167,1.7720030566236304,0.95,-0.67,1.26,-0.36,0.57,0.71,
56490.0,44.923407039092666,3.999836829763632,1.7498321419311282,0.95,-0.68,1.24,-0.33,0.57,0.71,
56490.0,44.74463655009391,4.000218718369098,1.7444255517328244,0.95,-0.68,1.22,-0.32,0.58,0.70,
56490.1,41.74483081771922,3.9761426859587976,1.6561800554693302,0.85,-0.86,1.22,-0.19,0.62,0.57,
56490.1,41.490192817098354,3.976232293536639,1.6458241706360455,0.85,-0.89,1.20,-0.18,0.61,0.58,
56490.1,41.72283307734507,3.9712398439897236,1.6586309744793855,0.84,-0.91,1.18,-0.17,0.62,0.56,
56490.2,40.49140526086987,3.9623155147074622,1.6194678410706873,0.73,-1.11,1.07,-0.04,0.64,0.53,
56490.2,40.61110931752542,3.953286792250599,1.5607003956065792,0.72,-1.12,1.06,-0.04,0.64,0.52,
56490.2,40.372963725741016,3.938206610252535,1.5371040433025676,0.72,-1.13,1.05,-0.03,0.64,0.52,
56490.3,39.66072742651098,3.929683325289517,1.4545509472276061,0.76,-0.59,0.93,0.09,0.69,0.52,
56490.3,39.60473330297781,3.9311252532535006,1.4543858508125092,0.77,-0.58,0.92,0.09,0.69,0.53,
56490.3,39.423324314420775,3.935840143503499,1.4538477306030004,0.77,-0.56,0.92,0.09,0.69,0.52,
56490.4,39.80558503526861,3.855140884803209,1.3699798191060946,0.74,-0.52,0.79,0.17,0.73,0.37,
56490.4,40.01845949059009,3.850135986346334,1.3723371220584066,0.73,-0.55,0.78,0.17,0.73,0.35,
56490.4,41.02600394871526,3.8273745232582703,1.3842236880137382,0.72,-0.58,0.78,0.19,0.73,0.33,
56490.5,41.19202471352919,3.784845500223332,1.3599742874703704,0.51,-0.77,0.60,0.39,0.78,0.34,
56490.5,40.714255488710585,3.7940491999555745,1.3289724179510392,0.50,-0.72,0.58,0.39,0.78,0.34,
56490.5,40.73944157692886,3.7899613844193305,1.317985774056351,0.49,-0.65,0.56,0.40,0.79,0.34,
56490.6,40.72185899489364,3.7579589517397043,1.2980383388051848,0.36,-0.04,0.32,0.36,0.81,0.29,
56490.6,41.069849037949965,3.7702033940383415,1.3047005517623265,0.35,-0.07,0.30,0.37,0.81,0.29,
56490.6,41.48850563710388,3.7293141213561816,1.2569070413965846,0.34,-0.10,0.28,0.37,0.81,0.28,
56490.7,40.234181984973915,3.7567731711397787,1.2412588408009895,0.11,0.05,0.04,0.36,0.79,0.23,
56490.7,38.38422853204165,3.734884185285858,1.230537789369192,0.09,0.05,0.04,0.36,0.79,0.22,
56490.7,40.08410408129387,3.7391976595446925,1.2344334028623152,0.08,0.04,0.04,0.37,0.79,0.23,
56490.8,41.91242655824165,3.7212906117126248,1.2476338527622832,0.02,0.13,-0.03,0.34,0.80,0.29,
56490.8,41.5154067786888,3.731635927022996,1.2512875265534054,0.01,0.13,-0.03,0.34,0.80,0.30,
56490.8,40.711465215587616,3.7540731504871685,1.2594905396542986,0.00,0.13,-0.04,0.34,0.80,0.30,
56490.9,40.81513199782649,3.7232992825187563,1.252578714192286,-0.24,0.14,-0.19,0.38,0.81,0.29,
56490.9,40.97586240703178,3.769250285976309,1.2914034598472135,-0.24,0.17,-0.19,0.37,0.81,0.29,
56490.9,40.922822483303854,3.7792249856696505,1.2788059407916181,-0.25,0.21,-0.20,0.37,0.81,0.28,
56491.0,41.35924564108973,3.8139839760770635,1.3025974218223126,-0.56,0.41,-0.49,0.35,0.77,0.30,
56491.0,40.46368001059716,3.8372756472303045,1.3307536594019491,-0.57,0.43,-0.51,0.34,0.76,0.30,
56491.0,40.62522984550365,3.825236494489676,1.3317268611840551,-0.58,0.45,-0.52,0.34,0.75,0.31,
56491.1,40.62976495132602,3.8321822432263772,1.3698391291463743,-0.88,0.63,-0.83,0.25,0.73,0.35,
56491.1,41.56971012648513,3.844249951126367,1.4152493522570169,-0.90,0.62,-0.84,0.25,0.71,0.36,
56491.1,41.87678593206503,3.847759356654468,1.42847162065205,-0.92,0.63,-0.86,0.25,0.71,0.37,
56491.2,40.836368594673054,3.8915965690691703,1.4552006951868053,-1.01,1.12,-0.98,0.12,0.64,0.46,
56491.2,41.83983867081707,3.8771936116976744,1.468802747964604,-1.01,1.15,-1.00,0.12,0.64,0.45,
56491.2,40.207087683641056,3.910789346357116,1.519788175068958,-1.02,1.17,-1.01,0.11,0.64,0.46,
56491.3,40.96653756421209,3.9650610566971713,1.6387087806201304,-1.13,2.15,-1.45,-0.15,0.56,0.61,
56491.3,41.565145254166985,3.984704430596207,1.6500320688051409,-1.11,2.15,-1.46,-0.18,0.56,0.61,
56491.3,42.37393184494448,4.009881513012539,1.6641495495343603,-1.10,2.14,-1.46,-0.21,0.55,0.60,
56491.4,43.335732369489264,3.99418425982405,1.8076849839265945,-0.92,1.67,-1.41,-0.39,0.53,0.70,
56491.4,42.037708072634025,4.007245614468371,1.8434437880759014,-0.92,1.60,-1.40,-0.42,0.52,0.73,
56491.4,42.743136291105266,4.013527402656481,1.858294839306129,-0.91,1.53,-1.39,-0.45,0.51,0.74,
56491.5,47.328694256233184,4.004288602228372,1.9857396922896726,-0.71,1.67,-1.28,-0.72,0.39,0.69,
56491.5,47.51208372614276,4.007438243038015,1.9909450362946224,-0.70,1.66,-1.27,-0.75,0.38,0.70,
56491.5,47.58912270676987,4.058056306270292,1.9939061580901483,-0.69,1.63,-1.26,-0.80,0.37,0.71,
56491.6,51.76277137093801,4.02112895103064,2.0912439955175164,-0.34,-0.45,-0.64,-0.71,0.37,0.72,
56491.6,52.2387930565016,4.056308549947877,2.066556130523389,-0.33,-0.45,-0.61,-0.70,0.37,0.72,
56491.6,52.33095068886099,4.059156664306186,2.066255499153199,-0.32,-0.43,-0.58,-0.68,0.37,0.71,
56491.7,54.376356075044235,4.030155537211877,2.1089353679752207,-0.28,0.02,-0.43,-0.65,0.34,0.70,
56491.7,54.649959743809504,4.027454847115135,2.110422785340943,-0.28,0.01,-0.43,-0.66,0.33,0.69,
