Clock Time (s),Elapsed Time (s),ax,ay,az,gx,gy,gz,mr,mtheta,mphi,
56450.4,0.0,0.01,0.00,0.93,0.02,-0.01,-0.23,42.433083790834715,3.3995885748699086,2.1467349221703618,
56450.5,0.09999999999854481,0.11,-0.02,0.96,-0.34,-0.15,0.23,43.730556822432526,3.37666534891363,2.164930651915859,
56450.6,0.19999999999708962,-0.04,-0.02,0.97,-0.08,-0.05,-0.10,41.11377506383962,3.4062963627337703,2.1435053924199177,
56450.7,0.2999999999956344,-0.04,-0.05,1.00,0.08,-0.18,-0.05,42.04556575906667,3.3941825730027753,2.1558666361118393,
56450.8,0.4000000000014552,-0.06,-0.05,0.96,0.24,-0.18,0.03,42.437164137109825,3.3747656499880367,2.139944176979296,
56450.9,0.5,-0.07,-0.06,0.91,0.32,-0.23,0.12,42.37546105943863,3.3881622997958867,2.0996422779307444,
56451.0,0.5999999999985448,-0.10,0.02,0.97,0.26,-0.21,0.32,42.261956887962484,3.3644750993498755,2.0965555145685375,
56451.1,0.6999999999970896,0.02,0.04,0.88,0.28,-0.02,0.53,41.92780819456223,3.3247828028764657,2.074298463248324,
56451.2,0.7999999999956344,-0.06,0.14,0.85,0.20,0.09,0.37,43.80206958580838,3.2634879469672238,2.0762720145789784,
56451.3,0.9000000000014552,0.08,0.12,0.90,0.16,0.12,0.16,42.2894135688827,3.257370663710955,2.0822944822126486,
56451.4,1.0,0.02,0.14,0.88,0.06,0.14,-0.02,45.28198979726928,3.250522856982079,2.0750958863274187,
56451.5,1.0999999999985448,0.06,0.15,0.85,0.09,-0.18,-0.20,43.28079135136048,3.2443502030524973,2.114242227234795,
56451.6,1.1999999999970896,0.10,0.15,0.90,0.01,-0.29,-0.42,44.669144831751595,3.273886294412919,2.1054277964853845,
56451.7,1.2999999999956344,0.07,0.13,0.96,0.11,-0.08,-0.50,43.63536753597934,3.305315106714303,2.0828511125370235,
56451.8,1.4000000000014552,-0.04,0.20,0.87,0.17,0.16,-0.40,44.935609487354235,3.36831603279359,2.0570706890988255,
56451.9,1.5,0.03,0.18,0.90,0.03,-0.21,-0.39,45.51787011713092,3.409568951855895,2.0597536370522698,
56452.0,1.5999999999985448,0.12,0.20,0.91,-0.06,-0.20,0.25,45.46083699185487,3.4802854698660854,2.0329515687054722,
56452.1,1.6999999999970896,0.14,0.19,0.89,0.07,-0.17,0.29,45.90698203977256,3.4006632660377303,2.0473884679583954,
56452.2,1.7999999999956344,0.12,0.21,0.84,0.16,-0.04,0.18,45.10251545091471,3.40043420195131,2.0393964778134297,
56452.3,1.9000000000014552,0.15,0.22,0.89,0.06,0.12,0.27,46.164004375703804,3.4000769285294634,2.0159965020818222,
56452.4,2.0,0.12,0.21,0.90,-0.00,0.22,0.27,44.396852365905396,3.345406610538659,2.0338175888354844,
56452.5,2.099999999998545,0.13,0.15,0.92,-0.04,0.22,0.30,45.445374902183396,3.3039777844348728,2.043968196468324,
56452.6,2.1999999999970896,0.10,0.15,0.88,0.00,0.07,0.25,43.88473196910287,3.3125485162472743,2.071329705465099,
56452.7,2.2999999999956344,0.08,0.16,0.87,0.04,0.23,0.08,45.45456852726687,3.2860116365666716,2.074257076449464,
56452.8,2.400000000001455,0.06,0.13,0.92,-0.01,-0.11,-0.03,46.6073309684217,3.312260755475216,2.088121838014901,
56452.9,2.5,0.07,0.14,0.89,0.08,0.05,-0.03,45.23706555469751,3.2764068546805185,2.0962203045575336,
56453.0,2.599999999998545,0.01,0.17,0.91,-0.03,0.14,-0.18,44.307327836374874,3.305315106714303,2.109218452690915,
56453.1,2.6999999999970896,0.07,0.15,0.95,-0.11,-0.18,0.05,45.41654984694456,3.3232106282806444,2.107455149116083,
56453.2,2.7999999999956344,0.06,0.13,0.88,-0.05,-0.16,0.10,44.576014851038444,3.273509853135394,2.0970391471351335,
56453.3,2.900000000001455,0.11,0.16,0.90,0.03,-0.14,-0.06,44.74963240072481,3.2552696620277435,2.0602813671708824,
56453.4,3.0,0.04,0.16,0.89,0.03,0.12,0.03,46.12310917533639,3.284816801079749,2.0699911923568948,
56453.5,3.099999999998545,0.09,0.15,0.89,-0.00,0.12,0.16,44.27093064303031,3.2835260150595693,2.0660506427059735,
56453.6,3.1999999999970896,0.11,0.13,0.91,-0.11,0.06,0.13,44.89021051409761,3.2326608151282237,2.046046360296817,
56453.7,3.2999999999956344,0.11,0.12,0.90,-0.16,0.20,0.07,45.06466575932856,3.2188958421589966,2.096642874179472,
56453.8,3.400000000001455,-0.07,0.08,0.85,-0.26,0.88,0.06,44.990485660859456,3.246511015052799,2.1395214751905858,
56453.9,3.5,-0.07,0.08,0.93,-0.34,0.33,0.15,45.56314848646875,3.2117854201897873,2.1912334892100627,
56454.0,3.599999999998545,-0.02,0.05,1.00,-0.29,0.08,0.20,44.882658120926834,3.1760810767672947,2.2229706605506787,
56454.1,3.6999999999970896,0.07,0.06,0.99,-0.04,-0.26,0.01,46.47051323151058,3.1129823104102643,2.2310182178616365,
56454.2,3.7999999999956344,-0.11,0.02,0.91,-0.04,-0.03,0.00,46.15124483694887,3.12702924249562,2.2330994311817736,
56454.3,3.900000000001455,-0.08,0.01,0.92,-0.02,0.05,0.08,46.94940574703795,3.1331803689921314,2.239033341420731,
56454.4,4.0,-0.05,0.01,0.93,-0.01,0.04,0.02,46.59939162693007,3.117553569362602,2.2378547153579715,
56454.5,4.099999999998545,-0.08,0.01,0.93,-0.01,0.03,-0.02,45.77371407259848,3.087659704794974,2.2563664903349334,
56454.6,4.19999999999709,-0.07,0.01,0.92,0.00,-0.03,0.02,46.47211852283044,3.0907144969905507,2.2424848741749512,
56454.7,4.299999999995634,-0.07,0.01,0.94,-0.00,0.01,-0.00,45.17636550232876,3.1182635534416066,2.2191256603724367,
56454.8,4.400000000001455,-0.07,0.00,0.91,-0.01,0.00,0.02,45.99280487206667,3.133019854759634,2.2368942563726995,
56454.9,4.5,-0.07,0.00,0.92,-0.01,0.02,0.01,44.9777244866834,3.1236189256234,2.2074605542108006,
56455.0,4.599999999998545,-0.06,0.00,0.93,-0.01,0.01,-0.01,45.96738300142831,3.1046535372499386,2.222195247187787,
56455.1,4.69999999999709,-0.08,-0.00,0.93,-0.01,0.03,-0.02,45.95001414580849,3.1044796076305317,2.2467991256513273,
56455.2,4.799999999995634,-0.07,-0.00,0.93,-0.01,0.03,-0.02,44.43915053193523,3.113696847823064,2.2164512679912245,
56455.3,4.900000000001455,-0.07,-0.01,0.92,0.01,0.00,-0.04,45.2769665503333,3.117935096301123,2.2400537315304856,
56455.4,5.0,-0.07,-0.01,0.93,0.01,0.04,-0.04,46.97501782862887,3.072708087282888,2.242948410487106,
56455.5,5.099999999998545,-0.07,-0.01,0.93,0.02,0.09,-0.04,45.83196482805423,3.1301947596446142,2.239099221462995,
56455.6,5.19999999999709,-0.06,-0.00,0.92,0.05,0.14,-0.12,46.22447620038544,3.1380143589255716,2.2373578357791146,
56455.7,5.299999999995634,-0.08,-0.01,0.94,0.02,0.09,-0.15,46.2674550845408,3.1424143460917984,2.232237413616245,
56455.8,5.400000000001455,-0.08,0.00,0.94,0.01,-0.06,-0.07,45.8609583414913,3.1756281460073743,2.274381347648323,
56455.9,5.5,-0.12,0.00,0.91,0.01,-0.08,0.02,46.453620956821005,3.174503678278118,2.2064584558416365,
56456.0,5.599999999998545,-0.09,0.00,0.91,-0.00,-0.06,0.02,45.888165140916236,3.1761202626340905,2.2625063460030344,
56456.1,5.69999999999709,-0.07,0.00,0.93,0.03,-0.06,-0.01,44.97805909551901,3.123092060382122,2.2450370905010866,
56456.2,5.799999999995634,-0.07,-0.01,0.93,0.02,-0.09,-0.02,44.57367945323787,3.1768216253636785,2.241379487940999,
56456.3,5.900000000001455,-0.06,0.00,0.92,0.02,0.01,-0.02,46.23166988115398,3.165124160368318,2.2298269946664147,
56456.4,6.0,-0.06,0.01,0.92,0.01,-0.02,-0.02,45.884522444937794,3.1473193431002073,2.21564079131751,
56456.5,6.099999999998545,-0.07,-0.00,0.93,0.02,-0.02,-0.00,45.14520794059985,3.166316706009211,2.2185370641960684,
56456.6,6.19999999999709,-0.07,-0.00,0.93,0.01,-0.01,-0.02,45.78033420585743,3.185465566198689,2.2358192741697036,
56456.7,6.299999999995634,-0.06,0.00,0.94,0.03,-0.00,-0.03,44.832124642938794,3.175436043635692,2.196039659836138,
56456.8,6.400000000001455,-0.06,0.01,0.92,0.02,-0.05,0.00,45.8661629090553,3.218047319534482,2.2296565338625314,
56456.9,6.5,-0.06,0.01,0.91,0.01,-0.09,0.03,46.13597945205022,3.1895753289167126,2.214525377209722,
56457.0,6.599999999998545,-0.07,0.00,0.92,0.03,0.04,0.00,45.98698185356373,3.1975780433445387,2.2262517117863,
56457.1,6.69999999999709,-0.05,0.01,0.93,0.02,0.01,0.01,45.462201882442955,3.183632878603481,2.20423560082138,
56457.2,6.799999999995634,-0.07,0.00,0.92,0.01,-0.01,0.00,45.82857732899855,3.210374676489285,2.2035084869554216,
56457.3,6.900000000001455,-0.06,0.01,0.92,0.01,0.02,-0.00,44.68314559204622,3.1760810767672947,2.2171010133737195,
56457.4,7.0,-0.07,0.01,0.93,0.03,-0.02,-0.03,45.67954246706068,3.1895011717592925,2.2143596782446586,
56457.5,7.099999999998545,-0.06,0.01,0.92,0.03,0.03,-0.01,45.320203000427966,3.2140818249979883,2.2172762119269205,
56457.6,7.19999999999709,-0.07,0.02,0.91,0.03,0.04,-0.01,45.760059003458466,3.249119851861734,2.224001942134028,
56457.7,7.299999999995634,-0.05,0.02,0.92,0.02,0.04,0.00,45.70243319561881,3.1953825553412876,2.2446945802100338,
56457.8,7.400000000001455,-0.05,0.02,0.93,-0.00,-0.01,-0.01,46.00772435146081,3.1798372258753487,2.211728746138349,
56457.9,7.5,-0.04,0.02,0.93,0.04,-0.07,-0.04,45.82697677132978,3.1794879209001046,2.1938270227938825,
56458.0,7.599999999998545,-0.05,0.02,0.92,0.04,0.01,-0.02,45.81345435568028,3.199319425770311,2.1980772339614414,
56458.1,7.69999999999709,-0.04,0.01,0.92,0.00,-0.00,0.01,46.13452178141657,3.2343613729571103,2.198118756770547,
56458.2,7.799999999995634,-0.05,0.01,0.92,-0.01,-0.03,0.03,45.86144459129041,3.2208428545315897,2.19785728081572,
56458.3,7.900000000001455,-0.06,0.01,0.92,0.00,-0.01,0.03,45.263369295711954,3.2104491428908375,2.2096653559695647,
56458.4,8.0,-0.05,0.01,0.92,0.01,0.01,0.01,44.405083042372524,3.2010159215593155,2.226655133681521,
56458.5,8.099999999998545,-0.05,0.01,0.93,0.01,0.01,-0.02,45.76050480490791,3.1979557906205325,2.2157650413645524,
56458.6,8.19999999999709,-0.06,0.01,0.92,0.02,0.03,-0.02,46.69018847680956,3.204908485232489,2.181651317804765,
56458.7,8.299999999995634,-0.05,0.02,0.92,0.02,-0.01,-0.02,44.66796279213996,3.2429250596410713,2.2086905798055456,
56458.8,8.400000000001455,-0.05,0.02,0.92,0.02,-0.01,-0.01,46.71142579712163,3.2080748431924704,2.1657404108183953,
56458.9,8.5,-0.04,0.01,0.93,0.01,-0.02,0.01,45.175928324717354,3.2388049943794472,2.232250749418621,
56459.0,8.599999999998545,-0.04,0.02,0.92,0.02,-0.00,0.00,46.36446268425851,3.214477494059953,2.199852268405036,
56459.1,8.69999999999709,-0.04,0.02,0.93,0.01,0.01,-0.01,45.42004073093727,3.1807078868929315,2.205737616697193,
56459.2,8.799999999995634,-0.04,0.02,0.92,0.03,0.01,-0.02,45.23168248031461,3.2371832708283628,2.2079835521149116,
56459.3,8.900000000001455,-0.04,0.01,0.92,0.01,-0.02,0.01,46.284990007560765,3.217007302952158,2.204583449078586,
56459.4,9.0,-0.04,0.02,0.92,0.01,-0.01,0.01,44.16386418781762,3.2388049943794472,2.202228770420142,
56459.5,9.099999999998545,-0.05,0.01,0.92,0.00,0.00,0.01,45.39889315831389,3.2161464184228725,2.201982114109904,
56459.6,9.19999999999709,-0.04,0.01,0.94,0.00,0.01,0.01,46.29864036880565,3.2011833978966666,2.205707462491853,
56459.7,9.299999999995634,-0.04,0.02,0.92,0.02,0.01,-0.00,46.988598617111364,3.1289750266968306,2.198083920750153,
56459.8,9.400000000001455,-0.04,0.01,0.93,0.01,-0.00,-0.01,46.163064239714416,3.2416048033987352,2.187543250445623,
56459.9,9.5,-0.05,0.02,0.92,0.01,0.00,0.00,45.37107228179647,3.2238748988296817,2.233372112969451,
56460.0,9.599999999998545,-0.04,0.02,0.92,0.01,0.02,0.01,45.058252296333016,3.218047319534482,2.2061397984969493,
56460.1,9.69999999999709,-0.04,0.02,0.93,0.00,-0.00,0.03,45.33920709496362,3.194161405978442,2.1972154874737995,
56460.2,9.799999999995634,-0.03,0.01,0.93,0.02,-0.01,0.02,45.448574235062644,3.1943924187036052,2.2134960961271752,
56460.3,9.900000000001455,-0.04,0.02,0.93,0.02,-0.01,-0.01,45.83386957262064,3.219419225630284,2.1713317517670188,
56460.4,10.0,-0.05,0.02,0.92,0.00,-0.00,-0.02,45.60705427891611,3.180024770542477,2.2065297260775942,
56460.5,10.099999999998545,-0.05,0.02,0.92,-0.00,0.02,0.00,45.27619683674856,3.2208428545315897,2.1797926544671413,
56460.6,10.19999999999709,-0.05,0.02,0.93,0.00,-0.00,0.01,45.95409666177761,3.2037201382349765,2.2273513544321037,
56460.7,10.299999999995634,-0.05,0.02,0.92,0.02,-0.00,0.02,43.22540341049462,3.1824987046463424,2.2182001118413703,
56460.8,10.400000000001455,-0.05,0.01,0.92,-0.01,0.00,0.01,47.95191862689125,3.2125523750602816,2.194343222293497,
56460.9,10.5,-0.05,0.02,0.94,0.01,0.02,0.00,45.4877708840519,3.1935782927233767,2.1935002268078154,
56461.0,10.599999999998545,-0.06,0.02,0.92,0.00,0.01,-0.00,45.40390291593884,3.184246400130197,2.1869787440103567,
56461.1,10.69999999999709,-0.05,0.01,0.93,-0.01,-0.01,0.02,46.08291006436117,3.2319809559763377,2.2213756773941626,
56461.2,10.799999999995634,-0.05,0.01,0.93,0.02,0.03,-0.01,45.613846581931675,3.216621156978272,2.1971882443370525,
56461.3,10.900000000001455,-0.04,0.02,0.91,-0.00,-0.00,0.02,45.484284099016,3.2151524535337557,2.191121381155363,
56461.4,11.0,-0.02,0.01,0.93,-0.02,-0.04,0.05,45.73271039420253,3.2270360526745696,2.2066761934629455,
56461.5,11.099999999998545,-0.05,0.01,0.93,0.02,0.01,-0.01,46.35476890245489,3.2504816069020688,2.1769814198769977,
56461.6,11.19999999999709,-0.03,0.00,0.91,0.04,-0.04,0.03,45.80418867308972,3.2035784189759107,2.1842704311151615,
56461.7,11.299999999995634,-0.02,0.00,0.92,0.01,0.00,0.02,45.547511457817315,3.215282667426281,2.1903996854214394,
56461.8,11.400000000001455,-0.05,0.00,0.94,-0.00,0.04,-0.01,44.8850030633841,3.1886136290163343,2.1634190678696523,
56461.9,11.5,-0.04,0.02,0.92,-0.00,-0.01,0.02,46.083325617841425,3.151717540743755,2.1898359487514307,
56462.0,11.599999999998545,-0.02,-0.01,0.92,-0.01,0.01,0.00,46.096009588683486,3.212671851306573,2.1931064863612435,
56462.1,11.69999999999709,-0.04,0.00,0.93,-0.02,0.01,0.00,45.70776958023657,3.161041306848998,2.1780098768313536,
56462.2,11.799999999995634,-0.05,0.01,0.93,-0.01,0.05,-0.02,45.17233666747825,3.2012072274064005,2.184643145056942,
56462.3,11.900000000001455,-0.06,0.01,0.91,0.03,0.04,-0.04,45.69290535739657,3.1768344666554014,2.180369748422138,
56462.4,12.0,-0.06,0.00,0.92,0.01,0.00,0.00,46.309256094219435,3.211073775378678,2.1996515225939293,
56462.5,12.099999999998545,-0.04,0.02,0.93,0.03,0.03,-0.01,45.26380562878027,3.2062840316097665,2.203343266255976,
56462.6,12.19999999999709,-0.05,0.02,0.91,0.06,0.05,-0.01,45.248130348114934,3.226104424747721,2.1856260217651378,
56462.7,12.299999999995634,-0.04,0.01,0.92,0.03,-0.01,0.01,44.27537238691505,3.2619063589565402,2.1956459509488404,
56462.8,12.400000000001455,-0.04,0.02,0.93,0.05,0.01,-0.04,45.313515643789984,3.227892463380611,2.2033599956767227,
56462.9,12.5,-0.05,0.02,0.91,0.03,0.01,-0.07,45.56328126902188,3.189046824428089,2.19799151955624,
56463.0,12.599999999998545,-0.04,0.01,0.92,0.00,-0.04,-0.03,46.08935343438873,3.231983388138543,2.209597130295388,
56463.1,12.69999999999709,-0.02,0.01,0.92,-0.01,-0.05,0.01,45.29908829104622,3.2443502030524973,2.184021852778268,
56463.2,12.799999999995634,-0.04,0.01,0.93,-0.01,-0.00,0.00,45.72818824313948,3.211073775378678,2.1819656350546497,
56463.3,12.900000000001455,-0.04,0.02,0.93,0.01,-0.01,-0.01,45.623789846964705,3.2197035037283155,2.1649355185720904,
56463.4,13.0,-0.05,0.01,0.91,0.02,0.07,-0.00,45.13847804257472,3.239335299313924,2.1730232151993922,
56463.5,13.099999999998545,-0.03,0.00,0.93,0.00,-0.03,0.01,45.38733744118507,3.2083773613206557,2.193732862289262,
56463.6,13.19999999999709,-0.03,-0.00,0.92,-0.00,-0.02,0.00,45.57003181916818,3.1742070793657917,2.166527804543037,
56463.7,13.299999999995634,-0.06,0.00,0.93,0.01,0.02,-0.02,45.08429660092303,3.2130370457244877,2.201038542778549,
56463.8,13.400000000001455,-0.04,0.02,0.92,0.02,0.01,0.02,45.73632582532182,3.2113352953569843,2.2036318951811165,
56463.9,13.5,-0.04,0.01,0.93,0.01,-0.00,0.02,46.37004528787954,3.2237351065405666,2.2027014189440974,
56464.0,13.599999999998545,-0.03,-0.00,0.90,0.01,0.04,-0.02,45.60945625635105,3.2014679484418855,2.1659419594986513,
56464.1,13.69999999999709,-0.04,0.05,0.92,0.09,0.08,-0.02,45.98736456897699,3.249932143839806,2.182796355960021,
56464.2,13.799999999995634,0.00,0.03,0.91,0.15,-0.02,0.06,45.508462949214184,3.2363097680615516,2.2155319050768996,
56464.3,13.900000000001455,-0.04,0.03,0.91,-0.01,0.01,-0.01,46.406336851770575,3.247458753021685,2.1981307405085158,
56464.4,14.0,-0.07,-0.01,0.96,-0.03,-0.02,0.10,47.52078387400612,3.2230659206443253,2.2029694931977306,
56464.5,14.099999999998545,-0.05,0.05,0.90,-0.02,0.10,0.02,44.26647715822889,3.2150935386108648,2.2145830577233534,
56464.6,14.19999999999709,-0.05,0.04,0.90,-0.02,0.08,0.02,45.992925542957146,3.2125556867009886,2.198202388993122,
56464.7,14.299999999995634,-0.09,0.01,0.90,-0.10,0.05,0.03,46.15921359815395,3.2171317059831517,2.22229586296396,
56464.8,14.400000000001455,-0.09,-0.00,0.95,-0.05,-0.06,0.01,47.038284407490885,3.2058565106103116,2.217943861402862,
56464.9,14.5,-0.03,0.00,0.94,-0.04,-0.08,0.08,45.33196223416763,3.2395376491835552,2.2315284150978965,
56465.0,14.599999999998545,-0.05,-0.00,0.94,-0.00,0.03,-0.04,44.776460333527936,3.1948902820369547,2.206062955522204,
56465.1,14.69999999999709,-0.09,-0.01,0.93,0.01,0.05,-0.02,46.056594533247896,3.192044060504453,2.191049766715274,
56465.2,14.799999999995634,-0.07,-0.00,0.91,0.02,0.01,0.01,45.276552430590385,3.2055099991870057,2.2445748892928448,
56465.3,14.900000000001455,-0.06,0.00,0.93,0.02,0.03,-0.02,46.13843842177583,3.2319050772881903,2.229747229378596,
56465.4,15.0,-0.07,-0.00,0.93,0.01,0.00,0.01,45.47877087169353,3.2105547111355173,2.23375562846005,
56465.5,15.099999999998545,-0.04,0.01,0.95,0.02,0.00,-0.01,47.296351867770944,3.1827259905281413,2.1933746347733627,
56465.6,15.19999999999709,-0.05,0.02,0.93,0.09,0.04,-0.04,45.14491665736022,3.181085786004944,2.2105108483612144,
56465.7,15.299999999995634,-0.09,0.02,0.93,0.16,0.05,-0.09,46.37232903359502,3.2099751542633688,2.2675899786836466,
56465.8,15.400000000001455,-0.07,-0.01,0.94,0.00,-0.11,-0.03,46.0375075346179,3.2545346230729137,2.2177636765223117,
56465.9,15.5,0.01,-0.01,0.94,-0.01,-0.10,-0.10,45.59967653394045,3.2348835313020152,2.2017517105492326,
56466.0,15.599999999998545,0.09,0.01,1.01,-0.00,-0.09,-0.34,44.590335275707446,3.248288518906439,2.2138993939979317,
56466.1,15.69999999999709,0.11,0.01,1.03,0.21,1.00,-0.69,45.78404197971167,3.259726201243802,2.2194833323219307,
56466.2,15.799999999995634,-0.02,-0.05,1.05,0.76,-0.02,-1.74,44.31326889318819,3.429227069652769,2.246338627093232,
56466.3,15.900000000001455,-0.15,0.00,0.98,1.08,-0.16,-2.15,45.7412964398693,3.6944487398396264,2.216080994094914,
56466.4,16.0,-0.37,0.15,0.86,1.26,-0.10,-1.83,46.520470762880294,3.892412857310917,2.0941410651116827,
56466.5,16.099999999998545,-0.49,0.23,0.65,1.19,0.25,-1.15,47.150991506011835,4.05118576031898,1.9478458936674525,
56466.6,16.19999999999709,-0.21,0.47,0.61,0.55,-0.51,-0.89,48.1846012746811,4.146309254001725,1.8692863695177946,
56466.7,16.299999999995634,-0.40,0.36,0.67,0.03,0.55,-0.56,48.38385061154186,4.182017040573067,1.7484410503566417,
56466.8,16.400000000001455,-0.24,0.32,0.66,-0.11,0.73,-0.57,49.850245736605956,4.163529827583499,1.7586587546507793,
56466.9,16.5,-0.42,0.18,0.70,-0.02,1.16,-0.42,49.641392003045205,4.148691174493882,1.8426587380011468,
56467.0,16.599999999998545,-0.62,0.12,0.94,0.03,1.07,-0.17,52.59086042270083,4.119004118300704,1.8869261668266275,
56467.1,16.69999999999709,-0.78,0.26,0.80,0.17,1.56,0.21,56.877090291258746,4.097393308209365,1.9880593558520072,
56467.2,16.799999999995634,-0.95,0.30,0.70,-0.10,0.82,0.69,58.67445440734835,4.113700560428155,2.0162329025780066,
56467.3,16.900000000001455,-0.92,0.40,0.72,0.27,-0.15,1.28,54.146288884834945,4.067665129180604,2.0072669990278955,
56467.4,17.0,-0.60,0.43,0.65,0.60,-0.29,1.63,49.57885436352881,4.048606503589718,1.910498786475477,
56467.5,17.099999999998545,-0.46,0.58,0.60,0.66,-1.57,1.71,43.76774383035982,4.036724847876881,1.8312257999072894,
56467.6,17.19999999999709,-0.09,0.63,0.56,0.93,-1.40,1.56,40.71620070684395,3.9894641710492955,1.6887129851876754,
56467.7,17.299999999995634,0.15,0.76,0.52,0.94,-0.52,1.13,40.898480411868604,3.914022496821296,1.5830220244448356,
56467.8,17.400000000001455,0.24,0.75,0.35,0.80,-1.00,0.78,40.82965221502628,3.8402900607106494,1.5075648296404494,
56467.9,17.5,0.34,0.79,0.23,0.43,-0.45,0.40,39.29579748522735,3.7776937732622184,1.3891176270214431,
56468.0,17.599999999998545,0.29,0.78,0.35,0.12,-0.38,0.16,39.23699529780536,3.784207468886975,1.3592153457860638,
56468.1,17.69999999999709,0.30,0.81,0.32,0.17,-0.45,0.00,39.73479457603877,3.790265319475139,1.2999741686648019,
56468.2,17.799999999995634,0.33,0.80,0.24,0.08,-0.21,0.06,41.89810258233659,3.762770913903569,1.2728377145589778,
56468.3,17.900000000001455,0.38,0.82,0.24,-0.12,0.18,-0.12,40.32617140270075,3.7767527534310217,1.2388930895638621,
56468.4,18.0,0.37,0.81,0.21,-0.53,0.46,-0.55,41.00734812201345,3.7923613717714777,1.2857841672058965,
56468.5,18.099999999998545,0.27,0.77,0.30,-0.97,1.11,-1.06,42.13635247621702,3.875398282012693,1.3679187445939143,
56468.6,18.19999999999709,0.09,0.66,0.43,-0.90,2.66,-1.48,39.06755431301018,3.9792876900649854,1.4959842319222407,
56468.7,18.299999999995634,-0.39,0.57,0.48,-0.53,2.27,-1.75,40.50908786926707,4.061255574417979,1.7142184079262832,
56468.8,18.400000000001455,-0.51,0.41,0.45,-0.86,-0.31,-1.63,40.07028949234083,4.11100067679136,1.8073340959259285,
56468.9,18.5,-0.89,0.42,0.50,-0.29,2.07,-1.08,44.00165110538467,4.0852346712526995,1.8666744912235185,
56469.0,18.599999999998545,-0.94,0.46,0.46,-0.35,0.22,-0.43,51.46332091888358,4.052552083566535,1.9777524540827287,
56469.1,18.69999999999709,-0.65,0.38,0.61,-0.27,0.00,-0.37,54.897657509223464,4.05420367012121,2.05881011946325,
56469.2,18.799999999995634,-0.78,0.29,0.56,-0.06,0.17,-0.41,58.40264805640237,4.070413423420895,2.1198663133653266,
56469.3,18.900000000001455,-1.08,0.28,0.57,0.19,0.40,-0.02,63.749582743732525,4.046738160248788,2.162349214041725,
56469.4,19.0,-0.82,0.24,0.53,0.01,0.01,0.07,67.41071502365185,4.054912791487585,2.166077657258972,
56469.5,19.099999999998545,-0.84,0.30,0.48,-0.11,-0.86,0.28,67.82507058603035,4.0450258080102355,2.1035696975819507,
56469.6,19.19999999999709,-0.73,0.33,0.65,0.01,-1.65,0.69,61.65833195927376,3.995829380161855,2.065065524631485,
56469.7,19.299999999995634,-0.50,0.35,0.61,-0.01,-2.05,0.96,56.60401575860144,4.03194639848611,1.987106199304517,
56469.8,19.400000000001455,-0.23,0.52,0.75,0.24,-1.87,0.68,50.412080893373165,3.993192277442502,1.8289501089496354,
56469.9,19.5,-0.16,0.43,0.67,-0.12,-0.56,1.03,45.66906830667777,3.9941047978601167,1.764922874468996,
56470.0,19.599999999998545,-0.11,0.39,0.66,-0.74,-0.21,1.32,45.343319243301984,3.9730921909318977,1.811517808906275,
56470.1,19.69999999999709,-0.08,0.26,0.73,-0.99,0.07,1.57,45.278968627829855,3.7908740448267393,1.8712390597692836,
56470.2,19.799999999995634,0.11,0.19,0.89,-0.86,0.15,1.36,44.03950953405362,3.6841966571910927,1.9553200814917504,
56470.3,19.900000000001455,0.10,0.05,0.94,-0.92,0.70,1.37,44.89751997605213,3.5094595126191415,2.022061343190847,
56470.4,20.0,0.05,-0.00,1.03,-0.60,0.65,1.05,45.23307086634733,3.3598914505668844,2.1402918439774616,
56470.5,20.099999999998545,0.05,0.01,0.94,-0.26,0.01,0.66,45.77022066802825,3.2310123792512746,2.16356583846589,
56470.6,20.19999999999709,0.07,-0.01,0.99,-0.23,0.15,0.49,46.276059685327574,3.124803186564609,2.1959030154227834,
56470.7,20.299999999995634,-0.01,-0.06,0.98,-0.09,0.10,0.11,46.26059338140833,3.133099707109893,2.2323528791422094,
56470.8,20.400000000001455,-0.08,-0.03,0.93,0.01,0.08,-0.03,46.23431950402212,3.089379120103021,2.2145518244108926,
56470.9,20.5,-0.03,-0.03,0.91,0.02,-0.06,0.01,46.450892348802086,3.064221749729772,2.2153598567124932,
56471.0,20.599999999998545,-0.06,-0.04,0.94,-0.00,-0.02,-0.06,46.92117858707302,3.10996971103473,2.2438618329973568,
56471.1,20.69999999999709,-0.07,-0.04,0.93,-0.00,-0.03,-0.02,46.44608702571186,3.087330296886367,2.211134816017508,
56471.2,20.799999999995634,-0.06,-0.05,0.94,0.00,-0.02,-0.01,46.56290046807651,3.0835676771262572,2.1956950062524125,
56471.3,20.900000000001455,-0.07,-0.05,0.93,0.04,0.02,-0.02,45.9858206407149,3.0940744744164412,2.21997727869667,
56471.4,21.0,-0.06,-0.04,0.92,0.05,-0.01,-0.03,46.81637106824919,3.114978879664419,2.223142645774524,
56471.5,21.099999999998545,-0.07,-0.03,0.93,0.01,0.03,-0.03,44.469762760779375,3.1185953061867218,2.2111569235253525,
56471.6,21.19999999999709,-0.07,-0.04,0.92,0.02,0.03,0.01,46.52418403368296,3.084534569223927,2.196825795331507,
56471.7,21.299999999995634,-0.07,-0.04,0.93,0.03,0.00,-0.04,45.26381667513247,3.0813847505781062,2.2074581767255212,
56471.8,21.400000000001455,-0.07,-0.03,0.91,0.02,-0.02,0.01,46.5470181644324,3.068910592980763,2.211394634568044,
56471.9,21.5,-0.07,-0.04,0.92,-0.00,0.01,0.02,45.4353133586641,3.1044796076305317,2.232548354720267,
56472.0,21.599999999998545,-0.06,-0.03,0.93,0.01,0.00,0.00,44.858094029951836,3.0796499080910635,2.2329638377716177,
56472.1,21.69999999999709,-0.07,-0.04,0.93,0.01,-0.01,-0.00,45.9266317075398,3.094351080354176,2.2333237227611713,
56472.2,21.799999999995634,-0.08,-0.04,0.91,0.00,0.03,-0.01,46.46750369882161,3.1109341359195124,2.2368031896952627,
56472.3,21.900000000001455,-0.08,-0.06,0.93,0.02,-0.02,0.01,45.74423460940187,3.0802391778980143,2.245643744974136,
56472.4,22.0,-0.06,-0.04,0.91,0.02,-0.00,0.01,44.66661169150846,3.1172693043945157,2.2280827608044556,
56472.5,22.099999999998545,-0.08,-0.04,0.92,-0.02,-0.03,0.03,45.493480851656095,3.0863065849892375,2.2083732138019503,
56472.6,22.19999999999709,-0.07,-0.04,0.93,0.02,-0.02,0.01,46.36508708069036,3.1241509773807703,2.2284173889474452,
56472.7,22.299999999995634,-0.07,-0.03,0.91,0.01,0.04,0.02,44.3485929878277,3.0852592433152752,2.199185962181698,
56472.8,22.400000000001455,-0.08,-0.04,0.92,-0.02,0.10,0.01,45.60018640312778,3.1048282529458033,2.2250285045140457,
56472.9,22.5,-0.07,-0.03,0.94,0.02,-0.01,-0.02,46.45324208276533,3.106433987498396,2.220718704461399,
56473.0,22.599999999998545,-0.09,-0.03,0.91,0.03,-0.00,-0.02,45.980445843858455,3.0947101425171466,2.193839098822589,
56473.1,22.69999999999709,-0.08,-0.04,0.92,-0.00,0.00,0.00,45.61773558606345,3.077724518632514,2.241972208761902,
56473.2,22.799999999995634,-0.07,-0.05,0.92,-0.00,0.00,0.00,45.489731808398254,3.0945585961230564,2.245615810503693,
56473.3,22.900000000001455,0.01,0.02,0.96,-0.01,0.03,-0.06,45.7827052499085,3.103906509424885,2.251981025151229,
56473.4,23.0,0.10,-0.02,0.99,0.13,-0.26,-0.43,45.960258920071375,3.0837581320729406,2.2299976024970345,
56473.5,23.099999999998545,0.15,-0.08,0.97,0.14,-0.48,-0.92,45.90052505146319,3.1751224878694786,2.215378607132165,
56473.6,23.19999999999709,0.12,-0.08,0.98,-0.07,-0.72,-1.42,45.113230875209986,3.301354294750282,2.1464794266475167,
56473.7,23.299999999995634,0.15,-0.12,1.00,0.06,-0.40,-1.71,45.28767381970507,3.39528451487322,2.041535341432247,
56473.8,23.400000000001455,-0.01,-0.10,0.96,0.47,0.06,-1.83,45.360181877942246,3.572561653447922,1.9726140220718789,
56473.9,23.5,-0.08,-0.01,0.91,0.63,0.35,-1.57,45.985790196537884,3.6704037871341115,1.9335951266515086,
56474.0,23.599999999998545,-0.11,0.15,0.87,0.83,0.72,-1.17,46.922410424018075,3.825818644223623,1.8964094892496333,
56474.1,23.69999999999709,-0.21,0.33,0.77,0.72,0.66,-1.04,50.38601095542293,3.8956821272601734,1.8722491262916618,
56474.2,23.799999999995634,-0.30,0.37,0.78,0.45,0.33,-0.75,51.03245046046682,4.036546092885859,1.8079619580663437,
56474.3,23.900000000001455,-0.17,0.45,0.72,-0.01,0.46,0.20,51.80180788350924,4.0623374043672245,1.7481666011830772,
56474.4,24.0,-0.15,0.37,0.76,-0.09,0.87,-0.13,50.27893395846813,4.039048419168065,1.7905445804459288,
56474.5,24.099999999998545,-0.38,0.12,0.84,-0.40,0.52,-0.49,51.190110373000756,3.9979193348534836,1.8512704544795515,
56474.6,24.19999999999709,-0.34,0.17,0.91,0.07,-0.55,-0.17,53.20367468511926,3.9788775927297575,1.9099443726227003,
56474.7,24.299999999995634,-0.38,0.24,0.97,0.20,0.44,0.09,53.32729695006114,3.930080694794277,1.9067421966369673,
56474.8,24.400000000001455,-0.48,0.28,0.92,0.23,0.37,0.35,53.729508652136396,3.9672825491340697,1.9161693223367497,
56474.9,24.5,-0.48,0.41,1.01,0.81,-0.38,0.58,51.42019058696691,3.9537316371563014,1.8664082158064907,
56475.0,24.599999999998545,-0.38,0.38,0.90,1.23,-1.44,1.10,44.926880595029075,3.9840033055113784,1.7378422969825476,
56475.1,24.69999999999709,-0.19,0.52,0.72,1.53,-1.42,1.34,41.326947625006135,4.012817578887466,1.5710382996642294,
56475.2,24.799999999995634,0.14,0.57,0.52,1.44,-1.02,1.42,39.970620460533254,4.01528641270011,1.4226465640076764,
56475.3,24.900000000001455,0.30,0.56,0.35,1.31,-0.70,1.10,40.05635405275922,3.9049568112430872,1.358246735338526,
56475.4,25.0,0.38,0.64,0.22,0.95,-0.62,0.67,39.10135163904184,3.8672978292477747,1.2591364033846562,
56475.5,25.099999999998545,0.47,0.72,0.13,0.65,-0.48,0.50,38.97488935199175,3.7734377110468817,1.1573177732675513,
56475.6,25.19999999999709,0.62,0.77,0.16,0.26,-0.49,0.19,40.051081133971906,3.7702838427906893,1.0619982486407824,
56475.7,25.299999999995634,0.59,0.79,0.14,0.05,-0.16,0.02,38.969659993384596,3.707191417152159,1.0562065872168624,
56475.8,25.400000000001455,0.50,0.73,0.18,-0.01,-0.27,-0.02,40.01409876531021,3.722671288282884,1.0177112479526091,
56475.9,25.5,0.56,0.75,0.09,-0.12,0.31,-0.18,40.5331543307451,3.724720365681564,1.0279045698470626,
56476.0,25.599999999998545,0.53,0.75,0.06,-0.55,0.68,-0.38,40.90551796518411,3.78204921048367,1.0827678938174823,
56476.1,25.69999999999709,0.49,0.70,0.17,-1.09,0.56,-0.64,40.27837384999548,3.822676279138456,1.1166481932748364,
56476.2,25.799999999995634,0.34,0.67,0.39,-1.44,-0.01,-0.85,39.5876773756683,3.8850719446459223,1.228436896097309,
56476.3,25.900000000001455,0.21,0.59,0.54,-1.55,0.70,-0.76,40.524170565231806,3.9933180633542156,1.3000043064864268,
56476.4,26.0,0.11,0.50,0.54,-1.69,1.18,-0.80,39.706781536659456,4.040226988164918,1.4389509869565729,
56476.5,26.099999999998545,-0.15,0.34,0.86,-1.36,1.95,-0.83,39.784764671919326,4.0172314710866805,1.5066574730815192,
56476.6,26.19999999999709,-0.33,0.29,0.93,-0.85,1.12,-0.54,43.55330182661241,3.9963578452272266,1.665534713286946,
56476.7,26.299999999995634,-0.37,0.27,0.96,-0.36,1.06,-0.39,48.25675185919582,3.9097588947472484,1.7812286308859517,
56476.8,26.400000000001455,-0.46,0.24,0.87,-0.17,0.43,-0.22,54.02401503035479,3.893479928053489,1.9146018234701732,
56476.9,26.5,-0.31,0.16,1.08,0.30,0.63,-0.25,54.8248976287234,3.8907575563248313,1.9680290539436416,
56477.0,26.599999999998545,-0.46,0.26,0.81,0.06,-0.33,0.03,58.16741871529112,3.8865244026058,1.9823700566825015,
56477.1,26.69999999999709,-0.40,0.19,0.81,0.01,-0.14,0.08,58.42590606914026,3.884374928510489,1.9423074662342097,
56477.2,26.799999999995634,-0.41,0.21,0.82,0.09,-0.29,0.11,58.54164329774148,3.9267352585977116,1.9031443637148706,
56477.3,26.900000000001455,-0.47,0.17,0.82,0.26,-0.35,0.33,56.261646794241635,3.928985229979075,1.903217312514242,
56477.4,27.0,-0.37,0.30,0.72,0.31,0.11,0.60,53.436191855333405,3.96684826794307,1.8555236518824707,
56477.5,27.099999999998545,-0.28,0.39,0.69,-0.26,-0.13,0.76,52.38948367754735,3.9949019628699363,1.8448800836867774,
56477.6,27.19999999999709,-0.28,0.30,0.83,-0.70,0.32,1.03,51.707158111812724,3.9945151713195375,1.9408356086203664,
56477.7,27.299999999995634,-0.20,0.24,0.96,-0.85,0.23,1.41,49.269988837019234,3.995689150063976,2.0095397145640175,
56477.8,27.400000000001455,-0.34,0.12,0.82,-0.95,0.47,1.86,47.95386741442237,3.8616936052620323,2.183566827534074,
56477.9,27.5,-0.16,0.06,0.96,-0.86,-0.06,1.79,47.02036154688732,3.663704071882004,2.2704808077352423,
56478.0,27.599999999998545,-0.01,0.00,0.94,-0.80,-0.72,1.56,46.971217782808225,3.4050628912705587,2.3208719035293193,
56478.1,27.69999999999709,0.06,0.04,0.89,-0.43,0.20,0.85,47.13920236915342,3.2850260537143794,2.305483421323357,
56478.2,27.799999999995634,-0.08,-0.09,1.00,-0.45,0.37,0.29,46.04245649397955,3.1530830141130366,2.3126840269709534,
56478.3,27.900000000001455,-0.15,-0.02,1.02,-0.19,-0.23,-0.06,46.282209324966324,3.0784761016777997,2.3726332334867752,
56478.4,28.0,-0.23,-0.04,0.94,0.08,-0.00,-0.08,46.20725159539355,3.1261299685302077,2.3466461820826505,
56478.5,28.099999999998545,-0.20,-0.05,0.93,0.05,0.04,-0.08,46.6968360812593,3.1184824135014195,2.360149989469087,
56478.6,28.19999999999709,-0.21,-0.05,0.91,0.02,-0.04,0.01,46.32713028021486,3.1217418710765283,2.356553915683054,
56478.7,28.299999999995634,-0.18,-0.02,0.92,0.05,0.06,-0.02,45.94392234017466,3.123423847489127,2.3394879209291153,
56478.8,28.400000000001455,-0.22,-0.04,0.88,0.02,0.02,0.05,45.67445018826171,3.166312073786977,2.3156179428727035,
56478.9,28.5,-0.21,-0.05,0.92,0.01,0.04,0.01,45.869835404108436,3.121945846904133,2.335900348214019,
56479.0,28.599999999998545,-0.20,-0.04,0.91,0.03,0.06,-0.02,45.863516001283635,3.1270084552396633,2.341184858357755,
56479.1,28.69999999999709,-0.19,-0.05,0.93,0.03,-0.02,-0.01,45.36849347289372,3.1210972583143217,2.3674685824293698,
56479.2,28.799999999995634,-0.19,-0.03,0.91,0.03,-0.05,-0.01,46.57243283316859,3.1376828990755623,2.346473392472558,
56479.3,28.900000000001455,-0.19,-0.03,0.92,0.02,-0.03,-0.01,46.38236841731996,3.1251607790324325,2.3541449792204276,
56479.4,29.0,-0.20,-0.04,0.91,0.02,0.02,-0.02,46.66717047347096,3.167304689289448,2.3423896058136857,
56479.5,29.099999999998545,-0.20,-0.04,0.90,0.01,0.02,0.01,45.91598958968433,3.159635808101127,2.3316226371671998,
56479.6,29.19999999999709,-0.20,-0.04,0.92,0.01,0.00,0.00,45.927644180819904,3.140391452966323,2.330479792959818,
56479.7,29.299999999995634,-0.19,-0.04,0.91,0.03,0.00,-0.02,44.88929716536003,3.1428407028637912,2.346427555697669,
56479.8,29.400000000001455,-0.20,-0.04,0.91,0.03,-0.02,-0.01,47.03019987199714,3.142789899351183,2.3515332123701924,
56479.9,29.5,-0.19,-0.03,0.91,0.03,0.02,-0.00,46.57578018670219,3.173957646260718,2.361551358598084,
56480.0,29.599999999998545,-0.19,-0.04,0.92,0.02,-0.04,-0.02,45.61576701097987,3.1161560063849554,2.3566528720448496,
56480.1,29.69999999999709,-0.20,-0.04,0.91,0.02,-0.01,-0.03,46.35426733322402,3.152199209276768,2.320004526727793,
56480.2,29.799999999995634,-0.19,-0.04,0.91,0.02,-0.02,-0.02,46.828421925151396,3.1532582924923496,2.3464960210680283,
56480.3,29.900000000001455,-0.21,-0.04,0.90,-0.00,-0.01,0.01,46.16047768383685,3.1531511192711372,2.321839887309038,
56480.4,30.0,-0.19,-0.03,0.91,-0.02,0.01,0.02,45.898603464593556,3.1944454408673177,2.335298684812461,
56480.5,30.099999999998545,-0.20,-0.04,0.92,0.00,0.00,0.01,46.34059559392823,3.1529626004760245,2.3360184017352865,
56480.6,30.19999999999709,-0.19,-0.04,0.91,0.01,0.01,0.01,46.280126404321756,3.158347518847845,2.3345779579889196,
56480.7,30.299999999995634,-0.19,-0.04,0.91,-0.00,0.01,-0.02,45.36662760223643,3.164053774197035,2.3568477772998633,
56480.8,30.400000000001455,-0.18,-0.03,0.92,0.01,-0.01,-0.02,46.12104291969123,3.15796511132335,2.3256109201887427,
56480.9,30.5,-0.19,-0.03,0.93,0.02,0.05,-0.03,45.93586398447296,3.157672268225783,2.321639680864525,
56481.0,30.599999999998545,-0.11,-0.04,0.98,0.13,-0.04,-0.07,46.34493499833612,3.147546736250934,2.330855282341181,
56481.1,30.69999999999709,-0.07,-0.04,0.96,0.23,-0.17,-0.24,46.18821927721397,3.189615921900248,2.29553472127414,
56481.2,30.799999999995634,0.01,-0.01,0.98,0.25,-0.43,-0.57,46.07445713190769,3.2263113974351163,2.287314507179065,
56481.3,30.900000000001455,0.02,-0.01,1.02,0.36,-0.53,-1.08,47.71440243783841,3.325917062489492,2.2670082569018137,
56481.4,31.0,0.01,0.00,0.93,0.63,-0.42,-1.43,45.53533353342215,3.4137927985743133,2.1870875480488747,
56481.5,31.099999999998545,-0.08,0.04,0.89,0.91,-0.08,-1.59,44.88387015398739,3.5747667671614787,2.079997872304241,
56481.6,31.19999999999709,-0.10,0.12,0.87,0.88,-0.04,-1.76,45.80200323129983,3.7427393577801826,1.9815795458002887,
56481.7,31.299999999995634,-0.28,0.29,0.78,0.93,0.57,-1.54,48.64525259467773,3.853828932030175,1.939895248044227,
56481.8,31.400000000001455,-0.37,0.31,0.66,0.71,0.71,-1.12,50.344395914540485,3.995194930816377,1.8946351785444042,
56481.9,31.5,-0.41,0.33,0.71,0.33,0.84,-0.69,53.167039601617844,4.021509560447541,1.8507373856259985,
56482.0,31.599999999998545,-0.44,0.36,0.74,0.05,0.78,-0.42,54.75499703223442,4.073576358047263,1.88687218058254,
56482.1,31.69999999999709,-0.42,0.33,0.71,-0.05,1.34,-0.23,55.81116554955648,4.065589958172898,1.9348037724089535,
56482.2,31.799999999995634,-0.83,0.25,0.55,0.06,2.52,-0.23,59.835337385194045,4.08815331047182,2.091355079888128,
56482.3,31.900000000001455,-0.75,0.32,0.65,0.13,0.43,-0.02,62.116600840677044,4.15954775879215,2.152117496017236,
56482.4,32.0,-0.87,0.29,0.48,-0.04,0.54,0.19,63.60851829747333,4.174553453691261,2.1908197839897037,
56482.5,32.099999999998545,-1.02,0.40,0.42,0.28,1.02,0.87,62.24821603869463,4.17313362394211,2.2065100424615895,
56482.6,32.19999999999709,-0.87,0.50,0.39,0.32,-0.07,1.27,53.96632839095133,4.134952112006242,2.113909549078566,
56482.7,32.299999999995634,-0.75,0.56,0.34,0.33,-0.25,1.60,47.12352278851826,4.135481078880328,2.017567610579773,
56482.8,32.400000000001455,-0.48,0.65,0.34,0.39,-0.37,1.90,43.24802192008323,4.110829984853753,1.9418095851315804,
56482.9,32.5,-0.26,0.70,0.28,0.15,-0.91,1.73,40.80774803882224,4.026875958740762,1.8695264984420061,
56483.0,32.599999999998545,-0.00,0.73,0.37,-0.01,-1.42,1.47,40.39771033115615,3.9295197133303006,1.8204245305520552,
56483.1,32.69999999999709,-0.13,0.75,0.34,-0.16,0.08,0.26,39.59395155828729,3.855140884803209,1.7433954221500096,
56483.2,32.799999999995634,0.06,0.82,0.47,-0.16,-0.47,0.20,40.60875890740814,3.8381514324064137,1.7310528883291998,
56483.3,32.900000000001455,-0.01,0.84,0.48,-0.10,-0.12,0.13,39.25009171963806,3.8188741178095005,1.7340681597387075,
56483.4,33.0,0.08,0.83,0.49,-0.09,-0.39,0.06,41.580708267176014,3.8168306896849127,1.7595012766812166,
56483.5,33.099999999998545,0.10,0.83,0.41,-0.00,-0.16,-0.05,42.307232242253804,3.8077899839732257,1.7162006364602649,
56483.6,33.19999999999709,0.13,0.80,0.42,-0.20,0.14,-0.39,40.90728297015092,3.785686091648914,1.7088628593074522,
56483.7,33.299999999995634,-0.03,0.75,0.45,-0.37,0.33,-0.81,40.873173353680286,3.8472732271327432,1.761063854369006,
56483.8,33.400000000001455,-0.12,0.72,0.46,-0.49,0.34,-0.99,39.73547785040466,3.92975171554921,1.8290983076472187,
56483.9,33.5,-0.22,0.66,0.51,-0.54,0.68,-1.13,40.44936711495002,3.9787345205228504,1.8426150272664954,
56484.0,33.599999999998545,-0.32,0.58,0.56,-0.55,1.27,-1.42,40.049661671479825,4.008781306788562,1.9058731581759463,
56484.1,33.69999999999709,-0.73,0.40,0.47,-0.15,1.55,-1.36,40.66967666456177,4.0354779211473915,2.0161618612075918,
56484.2,33.799999999995634,-0.89,0.36,0.51,-0.22,0.41,-1.05,44.0590887332001,4.041557449748021,2.0855189509650884,
56484.3,33.900000000001455,-0.85,0.38,0.49,-0.19,0.51,-0.64,47.76085531059928,4.034796334864764,2.170344645030927,
56484.4,34.0,-0.87,0.31,0.49,-0.09,0.11,-0.45,57.25853036884548,4.031777196141871,2.238642548366303,
56484.5,34.099999999998545,-0.86,0.28,0.46,-0.02,0.31,-0.31,60.86609318824398,4.074775759218719,2.2798310322306303,
56484.6,34.19999999999709,-0.83,0.20,0.64,-0.01,0.01,-0.28,65.37762767185728,4.060437134004947,2.3161253813575966,
56484.7,34.299999999995634,-0.92,0.29,0.30,0.10,-0.24,-0.09,68.32001829625048,4.150948393894495,2.3444733553731103,
56484.8,34.400000000001455,-0.90,0.27,0.42,0.15,0.22,0.24,68.17123586968333,4.177783368095947,2.3150347743023807,
56484.9,34.5,-0.95,0.24,0.41,0.12,-0.36,0.39,64.13559542095169,4.129358958491158,2.2564637354870665,
56485.0,34.599999999998545,-0.83,0.31,0.45,0.23,-0.98,0.75,58.369905773437736,4.068185943468526,2.16276165676826,
56485.1,34.69999999999709,-0.71,0.41,0.48,0.11,-1.07,0.96,54.051742802614605,4.056937087622177,2.0671363033327124,
56485.2,34.799999999995634,-0.48,0.50,0.54,0.12,-1.97,1.02,48.62653390896785,4.0792458189245195,1.959968346222587,
56485.3,34.900000000001455,-0.39,0.43,0.54,-0.24,-1.59,1.18,46.17414319724839,4.000023528496586,1.8927398772138528,
56485.4,35.0,-0.16,0.40,0.62,-0.82,-0.82,1.62,45.64017966660517,3.946063835249764,1.8596324357770302,
56485.5,35.099999999998545,0.13,0.32,0.80,-1.19,-0.75,1.65,45.66279995795264,3.7360429989684687,1.9400360184417116,
56485.6,35.19999999999709,0.19,0.21,0.85,-1.02,0.19,1.39,45.06026742042261,3.562114454297226,1.9143998470988917,
56485.7,35.299999999995634,0.19,0.13,0.97,-0.93,0.57,1.04,44.405272209502336,3.4256948893787,2.007216132206941,
56485.8,35.400000000001455,0.08,0.10,1.07,-0.63,0.86,0.47,45.87559372912791,3.370678454504381,2.0831601407979843,
56485.9,35.5,-0.01,0.07,0.94,-0.27,0.47,0.30,45.67667347782673,3.2823011780746496,2.1559898498987082,
56486.0,35.599999999998545,-0.09,-0.11,0.99,-0.52,-0.14,0.42,45.11358997020742,3.265094830490985,2.2568801673215244,
56486.1,35.69999999999709,-0.11,-0.07,0.93,-0.32,0.35,0.35,45.479141372721635,3.220279834381956,2.255131391193333,
56486.2,35.799999999995634,-0.07,0.02,0.99,-0.19,-0.19,-0.03,45.22266024903887,3.1279996080985977,2.2455267376669843,
56486.3,35.900000000001455,-0.08,-0.07,0.95,-0.01,-0.27,-0.09,45.75200323483114,3.1368533525803266,2.240479789768533,
56486.4,36.0,-0.07,-0.05,0.95,0.03,-0.02,-0.07,45.64759029784595,3.152003236377131,2.2148848309843063,
56486.5,36.099999999998545,-0.06,-0.03,0.91,0.12,-0.09,-0.01,46.66873150193822,3.1949915274687584,2.235868025374871,
56486.6,36.19999999999709,-0.06,-0.03,0.91,0.04,-0.06,0.05,46.32449675927413,3.1668357460211713,2.2077108311427978,
56486.7,36.299999999995634,-0.06,-0.02,0.93,0.03,0.01,0.05,46.40772564993893,3.160950278368508,2.211750844398794,
56486.8,36.400000000001455,-0.08,-0.02,0.90,0.06,0.08,-0.00,46.096290523208054,3.182846065297365,2.23237868977229,
56486.9,36.5,-0.08,-0.01,0.94,0.03,0.03,0.02,44.54346416703577,3.156873486884915,2.2007255242709487,
56487.0,36.599999999998545,-0.11,-0.04,0.89,0.00,0.09,0.09,45.48177986842643,3.174372310486705,2.2170743008999594,
56487.1,36.69999999999709,-0.07,-0.03,0.94,-0.05,0.01,0.05,45.15319036347266,3.1757555169201557,2.218403307103452,
56487.2,36.799999999995634,-0.07,-0.02,0.93,0.01,0.01,0.07,45.25301315934664,3.1618829915213817,2.2401906962942237,
56487.3,36.900000000001455,-0.06,-0.04,0.93,-0.00,0.00,0.03,45.56644050175523,3.1615622593877974,2.2286437140837805,
56487.4,37.0,-0.09,-0.03,0.93,0.02,0.06,0.01,45.68096540135728,3.1473193431002073,2.2096924206969777,
56487.5,37.099999999998545,-0.12,-0.04,0.91,0.01,0.04,0.03,46.56910349147813,3.189046824428089,2.2272051046248826,
56487.6,37.19999999999709,-0.10,-0.03,0.92,0.01,0.00,0.07,44.50385151871689,3.137551105156175,2.249533818176607,
56487.7,37.299999999995634,-0.07,-0.04,0.91,-0.03,-0.00,0.10,47.20444576520309,3.1021808955396226,2.203413974910502,
56487.8,37.400000000001455,-0.07,-0.04,0.94,0.00,0.04,0.05,44.75161784784993,3.106138408880925,2.2442183521621777,
56487.9,37.5,-0.07,-0.04,0.94,0.02,0.03,0.04,46.215549331366816,3.1048282529458033,2.2421992279105325,
56488.0,37.599999999998545,-0.10,-0.01,0.90,-0.01,0.07,0.11,45.544399216588644,3.1474275415247854,2.2304062029287937,
56488.1,37.69999999999709,-0.12,-0.06,0.92,-0.10,0.09,0.10,46.86186616002397,3.112975029626393,2.2299376333681113,
56488.2,37.799999999995634,-0.10,-0.06,0.94,-0.07,-0.01,0.09,46.638099232280034,3.1154529804727757,2.273741089423489,
56488.3,37.900000000001455,-0.11,-0.07,0.93,-0.04,0.05,0.05,45.90907644464219,3.078893412438274,2.2545190746576624,
56488.4,38.0,-0.11,-0.06,0.91,-0.00,-0.00,-0.02,46.078908407209475,3.070183927083805,2.27293064185224,
56488.5,38.099999999998545,-0.07,-0.06,0.97,0.04,-0.03,-0.05,46.87734954111634,3.0714108029739546,2.263311084173753,
56488.6,38.19999999999709,-0.02,-0.03,0.97,0.20,-0.01,-0.28,46.063037242457206,3.086109605967002,2.2484500669109493,
56488.7,38.299999999995634,0.18,-0.01,1.06,0.34,-0.34,-0.92,46.77537493168815,3.109065560371046,2.2743368582195727,
56488.8,38.400000000001455,0.19,-0.12,1.06,0.64,-0.88,-1.96,45.506440203558,3.3495228371444865,2.1542517998693773,
56488.9,38.5,0.08,-0.05,0.95,0.84,-0.06,-2.41,45.93223377977605,3.5005086980525144,2.0732518520017447,
56489.0,38.599999999998545,-0.14,0.08,0.86,0.89,0.35,-2.08,45.08759141936948,3.715668769264372,1.9984624533954343,
56489.1,38.69999999999709,-0.13,0.09,0.87,0.60,-0.36,-1.99,48.36493978079576,3.8885183027939147,1.9222443057451557,
56489.2,38.799999999995634,-0.22,0.28,0.79,0.62,1.00,-1.30,50.14748747444881,4.004847306530211,1.8643403913427916,
56489.3,38.900000000001455,-0.34,0.32,0.84,0.31,0.50,-0.95,53.447060723673104,4.088109605322958,1.8101317057935085,
56489.4,39.0,-0.29,0.34,0.80,0.12,0.12,-0.40,55.647890346355446,4.115547449048783,1.792564082992424,
56489.5,39.099999999998545,-0.42,0.28,0.75,0.00,1.07,-0.08,55.83747308036065,4.085486759214255,1.802641798672049,
56489.6,39.19999999999709,-0.51,0.27,0.81,-0.10,0.98,0.25,57.148469795787186,4.0548976209442955,1.886430638522121,
56489.7,39.299999999995634,-0.37,0.30,0.90,0.07,-0.13,-0.01,55.73625839612846,4.013438742276814,1.9547848255302924,
56489.8,39.400000000001455,-0.71,0.31,0.85,0.27,-0.62,0.54,55.513970313786785,4.0118014964065365,1.9767069609867898,
56489.9,39.5,-0.53,0.50,0.84,0.86,-0.79,1.08,51.517800807099675,3.9931530267934843,1.9052318934257237,
56490.0,39.599999999998545,-0.36,0.57,0.71,0.95,-0.67,1.26,45.73387475384084,3.9941047978601167,1.7720030566236304,
56490.1,39.69999999999709,-0.19,0.62,0.57,0.85,-0.86,1.22,41.74483081771922,3.9761426859587976,1.6561800554693302,
56490.2,39.799999999995634,-0.04,0.64,0.53,0.73,-1.11,1.07,40.49140526086987,3.9623155147074622,1.6194678410706873,
56490.3,39.900000000001455,0.09,0.69,0.52,0.76,-0.59,0.93,39.66072742651098,3.929683325289517,1.4545509472276061,
56490.4,40.0,0.17,0.73,0.37,0.74,-0.52,0.79,39.80558503526861,3.855140884803209,1.3699798191060946,
56490.5,40.099999999998545,0.39,0.78,0.34,0.51,-0.77,0.60,41.19202471352919,3.784845500223332,1.3599742874703704,
56490.6,40.19999999999709,0.36,0.81,0.29,0.36,-0.04,0.32,40.72185899489364,3.7579589517397043,1.2980383388051848,
56490.7,40.299999999995634,0.36,0.79,0.23,0.11,0.05,0.04,40.234181984973915,3.7567731711397787,1.2412588408009895,
56490.8,40.400000000001455,0.34,0.80,0.29,0.02,0.13,-0.03,41.91242655824165,3.7212906117126248,1.2476338527622832,
56490.9,40.5,0.38,0.81,0.29,-0.24,0.14,-0.19,40.81513199782649,3.7232992825187563,1.252578714192286,
56491.0,40.599999999998545,0.35,0.77,0.30,-0.56,0.41,-0.49,41.35924564108973,3.8139839760770635,1.3025974218223126,
56491.1,40.69999999999709,0.25,0.73,0.35,-0.88,0.63,-0.83,40.62976495132602,3.8321822432263772,1.3698391291463743,
56491.2,40.799999999995634,0.12,0.64,0.46,-1.01,1.12,-0.98,40.836368594673054,3.8915965690691703,1.4552006951868053,
56491.3,40.900000000001455,-0.15,0.56,0.61,-1.13,2.15,-1.45,40.96653756421209,3.9650610566971713,1.6387087806201304,
56491.4,41.0,-0.39,0.53,0.70,-0.92,1.67,-1.41,43.335732369489264,3.99418425982405,1.8076849839265945,
56491.5,41.099999999998545,-0.72,0.39,0.69,-0.71,1.67,-1.28,47.328694256233184,4.004288602228372,1.9857396922896726,
56491.6,41.19999999999709,-0.71,0.37,0.72,-0.34,-0.45,-0.64,51.76277137093801,4.02112895103064,2.0912439955175164,
56491.7,41.299999999995634,-0.65,0.34,0.70,-0.28,0.02,-0.43,54.376356075044235,4.030155537211877,2.1089353679752207,
56491.8,41.400000000001455,-0.71,0.26,0.60,0.13,-0.36,-0.23,56.19326916989258,4.014388894970444,2.1078737868459023,
56491.9,41.5,-0.82,0.11,0.70,-0.21,-0.56,0.02,56.66997794246968,4.015898670527729,2.0722238216437066,
56492.0,41.599999999998545,-0.55,0.23,0.76,0.41,-1.95,0.58,52.66182678183505,4.000218718369098,2.0063776434327414,
56492.1,41.69999999999709,-0.30,0.41,0.84,0.40,-1.22,1.02,51.00096273601117,3.998421802101291,1.8558106147513664,
56492.2,41.799999999995634,-0.35,0.43,0.65,0.22,0.07,1.38,48.16482118725242,3.99460698715112,1.8200214001490915,
56492.3,41.900000000001455,-0.15,0.41,0.61,-0.43,0.07,1.77,48.30257343040845,3.9452550397152306,1.9014066772138185,
56492.4,42.0,-0.04,0.35,0.71,-0.79,-0.02,1.88,46.6394189500684,3.7744044981819522,1.9868616049834262,
56492.5,42.099999999998545,0.16,0.23,0.87,-0.90,0.38,1.59,45.06062360864528,3.6109917753230207,2.027960574631077,
56492.6,42.19999999999709,0.12,0.16,0.91,-0.90,0.73,1.09,45.784272408765,3.4025629013884946,2.141661492665938,
56492.7,42.299999999995634,-0.07,0.07,0.98,-0.74,0.30,0.78,45.76841378068504,3.25558744353474,2.222212692103323,
56492.8,42.400000000001455,-0.05,0.05,0.96,-0.41,0.29,0.53,46.843254583771184,3.1426781348459594,2.2362017424614504,
56492.9,42.5,-0.05,0.05,0.97,-0.22,0.37,0.26,46.48724233593556,3.0670628161798685,2.246905768969559,
56493.0,42.599999999998545,-0.13,0.01,0.97,-0.05,0.34,0.04,45.38954284854608,3.037236444446603,2.289063712690714,
56493.1,42.69999999999709,-0.17,0.02,0.96,-0.07,0.27,0.13,47.187481390724805,3.015888515503151,2.307989068761505,
56493.2,42.799999999995634,-0.18,0.03,0.91,-0.09,0.16,0.14,46.70593217140624,3.0286974161419034,2.3400913856558505,
56493.3,42.900000000001455,-0.18,0.02,0.91,-0.02,0.05,0.03,46.985308342076465,2.9846127524322363,2.3627284116837424,
56493.4,43.0,-0.21,0.02,0.90,0.01,0.06,0.01,46.950794455472206,2.964519498810918,2.3386001985631553,
56493.5,43.099999999998545,-0.21,0.00,0.91,-0.00,0.04,0.00,46.27820653396153,2.9727607515786723,2.3739664957966733,
56493.6,43.19999999999709,-0.20,0.02,0.91,0.01,-0.01,-0.02,45.15749439461849,2.9881655737604924,2.3458761542448476,
56493.7,43.299999999995634,-0.21,0.01,0.92,0.03,-0.02,-0.02,46.11545185726797,2.9865378806580156,2.3770037622634383,
56493.8,43.400000000001455,-0.21,0.02,0.90,0.05,0.00,-0.01,47.599097680523315,2.9901315972981246,2.3676201417803235,
56493.9,43.5,-0.22,0.03,0.90,0.03,0.03,0.02,45.69103741435513,2.9724530295544143,2.386736946000082,
56494.0,43.599999999998545,-0.21,0.01,0.92,0.03,-0.06,0.02,45.685833690543504,3.0178672579839634,2.3801723027574537,
56494.1,43.69999999999709,-0.21,0.01,0.90,0.03,-0.08,0.04,45.89470230865432,2.9909364959362508,2.414224875274612,
56494.2,43.799999999995634,-0.21,0.03,0.90,0.01,0.02,0.01,46.63090498800125,2.9859610593299126,2.3966617975705584,
56494.3,43.900000000001455,-0.21,0.03,0.90,0.00,0.06,0.01,45.82126471410408,3.003003884484075,2.379602079211989,
56494.4,44.0,-0.20,0.02,0.90,0.01,0.00,0.02,46.425907637869614,2.9674036414299003,2.370057469075189,
56494.5,44.099999999998545,-0.23,0.02,0.91,-0.01,0.06,0.03,46.16577736808945,2.9831085091674123,2.3662273553774504,
56494.6,44.19999999999709,-0.20,0.03,0.89,0.04,0.03,-0.02,46.80093481972342,3.0019277381355947,2.398081388552101,
56494.7,44.299999999995634,-0.24,-0.00,0.91,0.03,-0.04,-0.09,45.847071880328414,2.9820409326565334,2.377434929865291,
56494.8,44.400000000001455,-0.23,0.04,0.91,0.00,0.06,-0.03,45.78861321333067,3.0024784424846263,2.351651041623814,
56494.9,44.5,-0.24,0.02,0.91,-0.03,0.15,0.07,45.59145862987935,3.000417555362317,2.3836219198030597,
56495.0,44.599999999998545,-0.23,0.01,0.91,0.06,-0.01,-0.01,46.91806581691108,3.0034658184247025,2.394429063322666,
56495.1,44.69999999999709,-0.22,0.01,0.90,0.06,-0.01,-0.06,46.24964107968839,2.9469249940976683,2.4095184185232617,
56495.2,44.799999999995634,-0.20,0.01,0.92,0.06,-0.06,-0.10,46.14272315327737,2.9777667940248054,2.365808374890631,
56495.3,44.900000000001455,-0.24,0.04,0.89,0.11,-0.01,-0.16,46.17498998375636,3.051809586981767,2.375660488822245,
56495.4,45.0,-0.24,0.02,0.88,0.07,-0.01,-0.08,47.52280399976415,3.1270084552396633,2.3765284716602832,
56495.5,45.099999999998545,-0.23,0.04,0.90,0.03,0.01,-0.06,46.06580727611316,3.056475660310173,2.387910827385767,
56495.6,45.19999999999709,-0.23,0.02,0.91,-0.01,-0.04,-0.01,47.105051746070714,3.095165173835358,2.391709700187082,
56495.7,45.299999999995634,-0.10,0.00,0.96,-0.01,-0.34,-0.02,47.53453586604165,3.1063595948089207,2.3762714519266694,
56495.8,45.400000000001455,0.03,0.02,1.06,0.29,-0.99,-0.52,46.12106026534949,3.095363359806706,2.354279436836136,
56495.9,45.5,0.12,0.03,0.99,0.35,-1.07,-1.07,45.69226411549334,3.1474831885436845,2.246554197345731,
56496.0,45.599999999998545,0.17,0.04,0.94,0.47,-0.37,-1.66,46.41265667897066,3.3032112987383613,2.1200559225943554,
56496.1,45.69999999999709,-0.10,0.02,0.85,0.66,-0.11,-2.02,45.267901431367456,3.4724064039321436,2.06846715967586,
56496.2,45.799999999995634,-0.12,0.12,0.83,1.00,0.49,-1.83,46.74394506243563,3.6661328341911528,1.9861075506479082,
56496.3,45.900000000001455,-0.21,0.17,0.80,0.73,0.83,-1.88,46.54887001850851,3.8285065943609795,1.9428066211780448,
56496.4,46.0,-0.43,0.25,0.73,0.51,1.05,-1.62,49.74266780139561,3.949703925589623,1.9035864225369588,
56496.5,46.099999999998545,-0.56,0.37,0.73,0.05,0.87,-0.77,52.98058229200581,4.043204246152335,1.9654413102001087,
56496.6,46.19999999999709,-0.57,0.34,0.65,-0.11,0.97,-0.21,55.57785260335271,4.041378088314024,2.0125311647505093,
56496.7,46.299999999995634,-0.68,0.20,0.71,-0.04,1.39,0.05,58.30622093739226,4.042935436548438,2.0732703928247,
56496.8,46.400000000001455,-0.75,0.25,0.52,-0.19,1.21,0.08,59.714027665197726,4.046361497138189,2.2018286954141995,
56496.9,46.5,-0.71,0.24,0.76,-0.09,0.29,0.18,60.50374120663945,4.00058898555212,2.238647868007343,
56497.0,46.599999999998545,-0.90,0.21,0.56,0.02,0.05,0.31,61.81515833515271,4.043498270619409,2.2847878083246917,
56497.1,46.69999999999709,-0.84,0.31,0.67,0.24,-0.54,0.60,57.26247811612767,4.019882523996664,2.244607569433334,
56497.2,46.799999999995634,-0.72,0.41,0.69,0.61,-1.07,1.13,54.09982902006253,3.953096169001449,2.142026284785883,
56497.3,46.900000000001455,-0.49,0.54,0.66,0.81,-1.22,1.43,47.477318795399555,3.945959602669531,1.9564659145705483,
56497.4,47.0,-0.35,0.59,0.53,0.82,-0.66,1.60,42.087757127221685,3.977237606174757,1.8544772815567308,
56497.5,47.099999999998545,-0.12,0.61,0.49,0.83,-1.66,1.53,39.46269504228012,3.860883918989196,1.7612380978926414,
56497.6,47.19999999999709,0.21,0.70,0.35,0.76,-0.82,1.22,38.77598483597805,3.860883918989196,1.6079412555021564,
56497.7,47.299999999995634,0.34,0.73,0.35,0.32,-0.63,0.48,39.766860575107,3.7804604353456246,1.5184675900165057,
56497.8,47.400000000001455,0.20,0.82,0.45,-0.00,-0.39,0.24,40.091179827987105,3.728414456130275,1.4811303422848872,
56497.9,47.5,0.37,0.78,0.38,0.01,-0.08,0.31,40.843437661391825,3.6960002198400446,1.43374846697868,
56498.0,47.599999999998545,0.35,0.73,0.36,-0.08,-0.28,0.03,38.859431287655255,3.705452324169108,1.4324221112919344,
56498.1,47.69999999999709,0.35,0.73,0.37,-0.36,0.39,-0.45,39.664143757303016,3.6902499140986973,1.496858734030287,
56498.2,47.799999999995634,0.23,0.68,0.41,-0.65,0.56,-0.84,39.27058695767101,3.7392926950552443,1.5040301347007348,
56498.3,47.900000000001455,0.05,0.65,0.53,-0.75,0.98,-0.86,39.22226281080682,3.7997288538847345,1.5690116251447683,
56498.4,48.0,-0.05,0.61,0.60,-0.88,1.01,-1.14,40.63689210557323,3.872301522925052,1.7122726871379719,
56498.5,48.099999999998545,-0.16,0.52,0.53,-0.80,1.77,-1.55,39.73047696668139,3.9233331888212524,1.8029254849684566,
56498.6,48.19999999999709,-0.55,0.37,0.69,-0.64,2.37,-1.69,40.23099427058695,3.9362410723004464,1.9443139844906987,
56498.7,48.299999999995634,-0.68,0.31,0.80,-0.34,1.91,-1.13,46.68554058806645,3.9252095577382713,2.125024476981811,
56498.8,48.400000000001455,-0.92,0.34,0.52,-0.16,0.41,-0.44,52.673440176240625,3.965758407674071,2.2751939601829148,
56498.9,48.5,-0.92,0.26,0.39,-0.10,0.67,-0.25,57.07335805785394,4.003294981443606,2.3790825490134297,
56499.0,48.599999999998545,-0.85,0.23,0.49,-0.16,0.11,-0.22,58.00729436889812,3.997060800743176,2.392774697982413,
56499.1,48.69999999999709,-0.87,0.29,0.43,0.03,0.12,0.23,61.42866106305753,3.9607838363589893,2.4552679546232388,
56499.2,48.799999999995634,-0.96,0.18,0.60,0.08,-0.94,0.22,61.640155742827254,3.9761756615904806,2.3920350669679538,
56499.3,48.900000000001455,-0.92,0.21,0.54,0.38,-1.08,0.83,58.84854968476284,3.9456936719204685,2.2909357565891004,
56499.4,49.0,-0.81,0.34,0.61,0.38,-0.99,1.24,53.338212380993795,3.966893579731359,2.148990459966101,
56499.5,49.099999999998545,-0.51,0.44,0.56,0.04,-1.49,0.99,48.914335322070976,3.9294648347006125,2.073109153563674,
56499.6,49.19999999999709,-0.33,0.46,0.63,-0.15,-1.09,1.24,45.25889967730104,3.9163387565069954,1.9226980247973615,
56499.7,49.299999999995634,-0.22,0.47,0.59,-0.49,-0.16,1.37,42.6304245815122,3.862483724420523,1.9431670098345175,
56499.8,49.400000000001455,-0.17,0.35,0.61,-1.15,-0.51,1.54,43.31231349166193,3.7561821022228186,2.0085410622600204,
56499.9,49.5,0.05,0.13,0.90,-1.22,-0.30,1.52,44.56456664212051,3.5359383303938117,2.041484021469129,
56500.0,49.599999999998545,0.12,0.05,1.04,-0.96,0.28,1.16,44.69514067546941,3.3529379757196938,2.0900713001752353,
56500.1,49.69999999999709,0.05,0.03,1.03,-0.43,0.88,0.64,46.0708074598221,3.1823652941257503,2.1417948088986076,
56500.2,49.799999999995634,0.01,-0.00,0.93,-0.45,0.20,0.46,45.911225206914274,3.161411387233316,2.2463599793675137,
56500.3,49.900000000001455,-0.00,-0.03,1.02,-0.30,0.29,0.23,45.25114473690141,3.0523609431134076,2.2167668767906576,
56500.4,50.0,-0.06,-0.01,0.97,-0.01,0.15,-0.06,46.2510389072505,3.0420628668423366,2.255467369520967,
56500.5,50.099999999998545,-0.11,0.01,0.94,0.05,0.23,-0.12,46.80586715359517,3.0551197973615944,2.2676393366219685,
56500.6,50.19999999999709,-0.13,0.02,0.94,0.08,0.19,-0.07,45.28086350766735,3.066414567892153,2.30268182643172,
56500.7,50.299999999995634,-0.14,0.02,0.91,0.01,0.02,-0.00,48.42343027915309,3.0813847505781062,2.2910801777109855,
56500.8,50.400000000001455,-0.16,0.02,0.93,-0.02,0.02,0.11,46.82611450889343,3.0614205341166,2.298594255537864,
56500.9,50.5,-0.15,-0.00,0.92,0.01,0.00,0.08,46.71525446789304,3.041542870037312,2.3283438250531,
56501.0,50.599999999998545,-0.14,-0.01,0.92,0.13,0.03,0.06,46.55504376541816,3.0782360789952348,2.3040830810866346,
56501.1,50.69999999999709,-0.16,0.02,0.93,0.04,0.01,0.03,46.27025070171978,3.024832918693777,2.3326893592880524,
56501.2,50.799999999995634,-0.17,0.01,0.91,0.06,0.10,0.01,47.652984166786446,3.0554389605884165,2.299154937582228,
56501.3,50.900000000001455,-0.17,0.02,0.92,0.00,0.03,-0.00,46.91241839854348,3.0445248134694056,2.329357146209752,
56501.4,51.0,-0.18,0.03,0.93,0.00,0.02,-0.00,46.17140781912546,3.0710932866211156,2.329647363448027,
56501.5,51.099999999998545,-0.18,0.03,0.89,-0.01,0.06,0.02,46.498298893615456,3.0378790924172714,2.3153711397966346,
56501.6,51.19999999999709,-0.18,0.02,0.90,0.01,0.09,-0.03,45.43460685424712,3.085437836909105,2.3298592238561686,
56501.7,51.299999999995634,-0.16,0.03,0.91,-0.00,0.07,-0.01,45.2041358727274,3.074453922976916,2.334707133328136,
56501.8,51.400000000001455,-0.23,0.01,0.91,0.00,0.27,-0.04,45.44328993371849,3.0793467276829354,2.345568404076988,
56501.9,51.5,-0.22,0.02,0.92,-0.02,0.08,0.00,46.87043737794646,3.0640694829384234,2.370404620245355,
56502.0,51.599999999998545,-0.20,0.02,0.91,-0.02,-0.01,0.03,46.37137155616598,3.0647971311552396,2.3663250760950163,
56502.1,51.69999999999709,-0.21,0.01,0.92,-0.00,-0.09,0.03,46.02831737094025,3.0436194468838225,2.382129484884728,
56502.2,51.799999999995634,-0.20,0.01,0.92,0.02,-0.12,0.03,45.65754373594795,3.0722682847964276,2.3767018791401817,
56502.3,51.900000000001455,-0.21,0.02,0.91,0.04,-0.06,0.03,46.19483737388844,3.0554902737632945,2.3342480288343435,
56502.4,52.0,-0.16,0.02,0.91,0.01,-0.17,0.02,45.9307369851606,3.0648672350404946,2.339765593444592,
56502.5,52.099999999998545,-0.17,0.01,0.91,-0.02,-0.11,0.01,46.80688517728989,3.062934579710718,2.3487452824658965,
56502.6,52.19999999999709,-0.16,0.02,0.90,-0.04,-0.06,0.01,46.25594664472882,3.0612487873066003,2.3113870946467867,
56502.7,52.299999999995634,-0.17,0.02,0.89,0.03,0.02,-0.01,46.206979992204644,3.056357570838422,2.32386294536384,
56502.8,52.400000000001455,-0.17,0.02,0.92,0.01,0.03,0.02,45.91170112291637,3.0512060800369927,2.3356287160990497,
56502.9,52.5,-0.14,0.04,0.92,0.06,-0.01,0.01,45.32890689173963,3.037355520021782,2.308565996765361,
56503.0,52.599999999998545,-0.19,0.01,0.93,0.09,0.02,0.01,46.338612409091404,3.0228342787103166,2.306550661170072,
56503.1,52.69999999999709,-0.17,0.02,0.90,0.03,-0.02,0.06,47.184245251990625,3.0509592852572167,2.3326623102920214,
56503.2,52.799999999995634,-0.15,0.01,0.92,-0.03,-0.05,0.03,46.23822444687944,3.057232356109951,2.3134976530336266,
56503.3,52.900000000001455,-0.13,0.01,0.91,-0.05,-0.03,-0.00,46.874113324947274,3.056777559793675,2.322803832093499,
56503.4,53.0,-0.06,0.02,0.96,-0.02,-0.11,-0.16,46.774536876381795,3.03402685897015,2.3073420248227676,
56503.5,53.099999999998545,0.06,0.03,1.02,0.22,-0.38,-0.68,46.10148479170709,3.113696847823064,2.2628988287552487,
56503.6,53.19999999999709,0.07,-0.00,0.98,0.47,-0.32,-1.39,47.34532289466405,3.2042116437452224,2.2311114429593313,
56503.7,53.299999999995634,-0.01,-0.01,1.03,0.69,-0.55,-1.80,44.93202198877767,3.3609478797164396,2.199104407135904,
56503.8,53.400000000001455,-0.08,0.06,1.09,1.13,0.07,-2.15,45.61104909997138,3.56494231283605,2.1313667666451956,
56503.9,53.5,-0.21,0.19,0.78,1.59,0.45,-1.81,45.9391162300713,3.7758441786442125,2.1128545021395846,
56504.0,53.599999999998545,-0.21,0.37,0.68,1.23,0.41,-1.60,48.23543510739796,3.973260021182246,1.9915115820578702,
56504.1,53.69999999999709,-0.41,0.40,0.59,0.43,1.46,-1.17,48.800075819613234,4.079058479556993,1.8979098745006813,
56504.2,53.799999999995634,-0.70,0.27,0.49,0.10,3.28,-0.47,51.884144977054405,4.1346790129506825,1.9883427269601581,
56504.3,53.900000000001455,-1.01,0.29,0.25,0.09,2.08,-0.29,54.22752345442303,4.196807667132001,2.1665758596838525,
56504.4,54.0,-0.93,0.33,0.46,0.06,-0.57,0.05,58.828782921287775,4.226798884698055,2.2420580413173887,
56504.5,54.099999999998545,-0.88,0.43,0.43,-0.01,-0.75,0.20,58.1984510103147,4.208967625269514,2.223801838638497,
56504.6,54.19999999999709,-0.93,0.35,0.43,-0.10,-0.40,0.40,57.78682375766988,4.155334189966149,2.221409467505574,
56504.7,54.299999999995634,-0.86,0.42,0.59,0.28,-0.66,0.88,53.339757217295244,4.03888286677427,2.1626890886596284,
56504.8,54.400000000001455,-0.81,0.50,0.56,0.48,-0.85,1.34,47.84732594409013,3.9975302781425874,2.041748340741086,
56504.9,54.5,-0.55,0.58,0.48,0.62,-0.92,1.74,43.23145614017645,4.030892433526229,1.9459331837435994,
56505.0,54.599999999998545,-0.33,0.59,0.46,0.64,-1.52,1.87,39.316923836943296,3.997041652055279,1.8216584161073406,
56505.1,54.69999999999709,0.02,0.63,0.36,0.66,-1.22,1.58,39.99390453556642,3.900373036899244,1.6549082736181642,
56505.2,54.799999999995634,0.15,0.69,0.34,0.43,-0.41,1.05,40.23941848486382,3.8092657523406355,1.6050977830484991,
56505.3,54.900000000001455,0.12,0.77,0.24,0.15,-0.25,0.61,40.310750427150325,3.7424618146759667,1.573277057158571,
56505.4,55.0,0.41,0.93,0.40,0.02,0.09,0.17,41.2086617108588,3.6856815561220984,1.50863343741276,
56505.5,55.099999999998545,0.28,0.87,0.39,0.08,-0.08,0.07,41.19801694256654,3.6908355772838113,1.4757457866653534,
56505.6,55.19999999999709,0.28,0.83,0.34,0.12,-0.00,0.11,40.700235871552394,3.6698093697630942,1.4659365688878132,
56505.7,55.299999999995634,0.39,0.82,0.29,-0.11,-0.03,-0.24,41.26714310441177,3.672343371230527,1.4958482074709718,
56505.8,55.400000000001455,0.37,0.77,0.26,-0.56,0.53,-0.85,41.42674257047011,3.6868707178476883,1.4922638898266196,
56505.9,55.5,0.18,0.72,0.37,-0.93,1.18,-1.36,42.292729871693076,3.7962070433176236,1.5731608015753722,
56506.0,55.599999999998545,-0.21,0.64,0.53,-1.09,1.03,-1.48,40.898521978184,3.8998292643720998,1.6881848917861573,
56506.1,55.69999999999709,-0.31,0.42,0.50,-0.88,0.97,-1.70,39.7986293733842,3.944998693721648,1.786543894006594,
56506.2,55.799999999995634,-0.57,0.37,0.65,-0.86,1.00,-1.74,41.08607306618631,3.9734095336577955,1.9128191717352558,
56506.3,55.900000000001455,-1.04,0.29,0.63,-0.53,1.72,-1.31,46.87474479930531,3.9181797399398857,2.004538028171456,
56506.4,56.0,-0.82,0.33,0.63,-0.29,0.76,-0.53,54.38017101848798,3.9032685034904686,2.105043144145748,
56506.5,56.099999999998545,-0.85,0.33,0.63,0.27,0.58,0.02,59.98532237139348,3.884373644227596,2.19626410130728,
56506.6,56.19999999999709,-0.77,0.26,0.59,-0.14,-0.24,-0.13,60.994155457715785,3.937249790208319,2.1912043303372006,
56506.7,56.299999999995634,-0.86,0.08,0.67,-0.08,-0.14,0.04,59.13588166248983,3.93025393207404,2.2039475987566974,
56506.8,56.400000000001455,-0.78,0.11,0.62,0.24,-1.05,0.53,57.70858514987176,3.9639463278134537,2.139944401071374,
56506.9,56.5,-0.55,0.31,0.54,0.27,-1.44,0.77,54.2900930188925,4.010059770169115,2.0266485229691122,
56507.0,56.599999999998545,-0.39,0.42,0.61,-0.33,-1.48,0.98,52.89453941570907,4.029705874768985,1.9587553638195832,
56507.1,56.69999999999709,-0.32,0.36,0.71,-0.98,-0.58,1.68,49.6725839875479,3.9924959777700204,1.956774163725003,
56507.2,56.799999999995634,-0.11,0.22,0.86,-1.17,-1.03,1.97,47.3522185330318,3.809988782546763,2.0234580281209955,
56507.3,56.900000000001455,0.00,0.09,0.90,-1.13,0.42,2.04,45.91742370821778,3.6267507987837653,2.0966922807536976,
56507.4,57.0,0.10,0.03,1.02,-1.02,0.06,1.65,46.92620696369993,3.3884487786824473,2.169853442286497,
56507.5,57.099999999998545,-0.01,-0.06,1.03,-0.61,0.48,0.83,46.11226626397796,3.245968626212934,2.2258041687767425,
56507.6,57.19999999999709,-0.09,-0.07,1.02,-0.12,0.32,0.26,46.343377088857046,3.2055099991870057,2.2729078410343786,
56507.7,57.299999999995634,-0.13,-0.05,0.95,-0.03,0.20,0.20,46.676660120449924,3.1286437370846696,2.3017383738716144,
56507.8,57.400000000001455,-0.14,-0.03,0.93,-0.07,0.05,0.13,45.43323673259478,3.1066948661745384,2.329887833090843,
56508.0,57.599999999998545,-0.21,-0.03,0.90,0.05,0.02,0.01,46.42499003769414,3.0771563491280833,2.3194702559826714,
56508.1,57.69999999999709,-0.18,-0.02,0.91,0.05,-0.05,0.02,45.9219087146865,3.0812232501220898,2.32460801415312,
56508.2,57.799999999995634,-0.20,-0.03,0.91,0.06,0.02,0.04,46.31449449146563,3.121735450872002,2.3093557189083262,
56508.3,57.900000000001455,-0.17,-0.02,0.91,0.02,-0.02,0.05,45.67085394428267,3.1209492669096566,2.320466476535543,
56508.4,58.0,-0.16,-0.02,0.93,-0.02,-0.03,0.03,47.777670516675464,3.1125770524253706,2.346065773081394,
56508.5,58.099999999998545,-0.17,-0.01,0.92,0.03,0.01,-0.03,46.0890757121468,3.07228488183754,2.350384438929309,
56508.6,58.19999999999709,-0.20,-0.02,0.92,0.05,0.03,0.04,46.1945667800879,3.0499516264008117,2.3390589607447385,
56508.7,58.299999999995634,-0.18,-0.02,0.92,0.05,-0.01,0.07,46.76169158616913,3.0777485257133526,2.336858095956922,
56508.8,58.400000000001455,-0.17,-0.02,0.89,0.04,0.02,0.06,47.15404648595919,3.0784185974732043,2.31495671305169,
56508.9,58.5,-0.19,-0.02,0.90,0.02,0.07,-0.01,45.9715629492842,3.0771563491280833,2.30879308906742,
56509.0,58.599999999998545,-0.18,-0.02,0.92,0.00,0.03,0.02,47.08384648687913,3.0362948457897283,2.3091275192650986,
56509.1,58.69999999999709,-0.16,-0.01,0.94,0.02,-0.01,-0.01,46.64092087427091,3.0656487670988204,2.3450342717321258,
56509.2,58.799999999995634,-0.17,-0.00,0.92,-0.00,0.01,0.01,45.31114984195391,3.0152796625433878,2.3478081209050696,
56509.3,58.900000000001455,-0.19,0.01,0.92,-0.02,-0.04,0.03,47.1978908427061,3.0736878770849585,2.3268389454684115,
56509.4,59.0,-0.20,0.01,0.91,-0.00,-0.04,0.08,46.909439348600195,3.0441395427101146,2.367717801489673,
56509.5,59.099999999998545,-0.18,-0.01,0.91,-0.00,-0.06,0.12,46.952421662785405,3.0563272214725994,2.3552799863228175,
56509.6,59.19999999999709,-0.16,-0.01,0.91,0.01,-0.06,0.08,46.56098581430595,3.0337399377790777,2.302235238113132,
56509.7,59.299999999995634,-0.17,-0.03,0.92,0.02,-0.06,0.06,46.30014794792777,3.0147583864438023,2.332073477388347,
56509.8,59.400000000001455,-0.17,-0.01,0.91,0.02,-0.05,0.05,46.93471423157917,3.051636606110158,2.308562283122938,
56509.9,59.5,-0.15,-0.03,0.91,0.00,-0.03,0.03,46.82606966210169,3.043842938093135,2.3220093117949627,
56510.0,59.599999999998545,-0.15,-0.01,0.92,-0.01,-0.03,0.02,45.82334012269294,3.013536713690218,2.321244853670546,
56510.1,59.69999999999709,-0.14,-0.01,0.92,-0.00,-0.02,0.04,46.45596947648386,3.0236265502349333,2.2964694810328674,
56510.2,59.799999999995634,-0.13,-0.01,0.90,-0.01,-0.02,0.03,47.04625596155341,3.0130182748000283,2.3217102976397896,
56510.3,59.900000000001455,-0.08,-0.01,0.95,0.04,-0.06,-0.08,46.95714961536741,3.025164214889736,2.2938362834497457,
56510.4,60.0,0.03,-0.02,0.97,0.12,-0.23,-0.43,46.1066307595773,2.9809440161127103,2.2772593766831344,
56510.5,60.099999999998545,0.14,-0.06,1.02,0.28,-0.33,-1.38,45.77140701354941,3.1179113506489404,2.283526345190288,
56510.6,60.19999999999709,0.02,0.01,1.06,0.75,0.05,-1.87,45.89886599906364,3.322006295551106,2.2140436517396225,
56510.7,60.299999999995634,-0.11,0.10,1.03,1.23,-0.04,-1.93,46.110706999567896,3.5158744440422423,2.154176514077574,
56510.8,60.400000000001455,-0.28,0.05,0.91,1.64,0.32,-2.01,45.9534253347887,3.768104619235969,2.08945919282424,
56510.9,60.5,-0.35,0.34,0.66,1.67,0.47,-1.96,46.9265916085965,3.94055872720973,1.968851934328578,
56511.0,60.599999999998545,-0.43,0.35,0.60,0.65,0.82,-0.95,46.04820191929322,4.041399418319873,1.9182585131012388,
56511.1,60.69999999999709,-0.28,0.35,0.65,-0.23,0.54,-0.89,48.53361103400405,4.104277086934146,1.8908603368966892,
56511.2,60.799999999995634,-0.67,0.17,0.66,-0.01,2.28,-0.45,50.095953928436174,4.07492944689632,1.9423925535245867,
56511.3,60.900000000001455,-0.83,0.24,0.48,0.08,2.58,-0.34,54.457288768354964,4.072338091555911,2.142609943822979,
56511.4,61.0,-1.07,0.28,0.49,0.01,0.81,-0.19,60.72788486354518,4.158568220576923,2.267314082449823,
56511.5,61.099999999998545,-0.91,0.42,0.50,0.08,-0.34,0.45,62.366873418506394,4.147303841891928,2.2620686349141716,
56511.6,61.19999999999709,-1.00,0.33,0.61,0.11,-0.46,0.69,58.66488216982968,4.067880230652734,2.1940179087242835,
56511.7,61.299999999995634,-0.95,0.42,0.57,0.51,-0.51,1.44,53.62557319040982,4.01331715722821,2.107303143950153,
56511.8,61.400000000001455,-0.70,0.54,0.51,0.69,-0.88,1.98,44.902001068994686,4.036311446884968,1.9964313100039097,
56511.9,61.5,-0.39,0.61,0.41,0.67,-1.14,2.11,38.965392337303626,4.02841319902378,1.8250314905633427,
56512.0,61.599999999998545,-0.10,0.67,0.37,0.61,-1.24,1.94,40.16487644696545,3.947862005364218,1.7323350064865708,
56512.1,61.69999999999709,0.06,0.70,0.35,0.45,-0.68,1.45,39.30484194091105,3.8616936052620323,1.6329151348008117,
56512.2,61.799999999995634,0.22,0.80,0.35,0.36,-0.41,1.02,39.116408321828324,3.774355233729633,1.5562239210275794,
56512.3,61.900000000001455,0.35,0.79,0.28,0.19,-0.53,0.64,38.892512132800064,3.684220630835221,1.5129122552855216,
56512.4,62.0,0.44,0.82,0.28,-0.02,-0.22,0.24,38.59177373482592,3.629775928758351,1.4890818060398006,
56512.5,62.099999999998545,0.36,0.84,0.30,-0.08,-0.01,-0.10,39.80791127401688,3.6267507987837653,1.5016595165211117,
56512.6,62.19999999999709,0.37,0.82,0.30,-0.22,-0.04,-0.37,40.263921815938396,3.6517158057623345,1.4924824910328405,
56512.7,62.299999999995634,0.33,0.79,0.30,-0.47,0.33,-0.74,39.86306686646174,3.721363267843434,1.4977314322779502,
56512.8,62.400000000001455,0.23,0.73,0.29,-0.86,0.54,-1.12,38.02910201411545,3.757039631451794,1.5337109585258808,
56512.9,62.5,0.04,0.56,0.40,-1.26,1.00,-1.56,39.64726220056058,3.880853217184537,1.6389496159535497,
56513.0,62.599999999998545,-0.30,0.49,0.62,-1.27,1.15,-1.92,38.977265168300356,3.9106959630596423,1.772273311467031,
56513.1,62.69999999999709,-0.46,0.36,0.72,-1.03,1.39,-2.05,42.08209714355976,3.9549145301720805,1.9044053119718973,
56513.2,62.799999999995634,-0.83,0.28,0.78,-0.33,0.35,-1.56,48.665916204259425,3.876609125057917,2.077794739299107,
56513.3,62.900000000001455,-0.78,0.44,0.70,0.13,1.53,-0.25,61.669577588953864,3.8425228011190686,2.183400333854055,
56513.4,63.0,-0.90,0.17,0.54,-0.14,-0.08,-0.29,66.90620673749184,3.92249921795626,2.2525244915804095,
56513.5,63.099999999998545,-0.93,0.16,0.53,0.04,-0.30,0.17,66.32728624027972,3.8956596605477425,2.269432806780124,
56513.6,63.19999999999709,-0.87,0.22,0.62,0.11,-0.77,0.62,62.4018124736774,3.933816174154135,2.1914334961692092,
56513.7,63.299999999995634,-0.66,0.29,0.51,0.08,-3.22,0.95,54.41088585935722,3.934231713046194,2.066905831791277,
56513.8,63.400000000001455,-0.03,0.34,0.89,0.28,-3.47,1.09,49.73586030220046,3.9240505137875825,1.8281732003581308,
56513.9,63.5,-0.07,0.34,0.64,0.15,-1.03,0.98,46.883516293042696,3.919552059405672,1.684943352632373,
56514.0,63.599999999998545,-0.04,0.33,0.65,-0.25,0.45,1.25,46.588282861681,3.8927211366156786,1.6520218936653592,
56514.1,63.69999999999709,0.05,0.27,0.76,-0.74,0.18,1.52,46.32211782723239,3.828339175979763,1.7399884709096118,
56514.2,63.799999999995634,0.05,0.05,0.83,-1.23,0.20,1.72,45.479785619547506,3.6863033033033243,1.8298415620624902,
56514.3,63.900000000001455,0.31,-0.00,1.03,-1.22,0.66,1.82,44.957955914387384,3.512798653235742,1.9863652820413558,
56514.4,64.0,0.08,-0.12,1.07,-0.68,1.20,1.04,46.013629502572385,3.3309026711067804,2.107827743533371,
56514.5,64.09999999999854,0.00,-0.16,1.00,-0.57,0.75,0.98,45.70218922546271,3.214938987501114,2.1834336699037387,
56514.6,64.19999999999709,0.02,-0.18,0.99,-0.22,0.34,0.37,46.33634858294296,3.140001142997171,2.1912459161530773,
56514.7,64.29999999999563,-0.08,-0.15,0.96,0.01,0.06,0.17,46.068358989657966,3.0818419361555973,2.2444626094480657,
56514.8,64.40000000000146,-0.11,-0.14,0.90,0.05,0.03,0.15,45.15200327781704,3.059682510830591,2.25190010813062,
56514.9,64.5,-0.09,-0.14,0.91,0.00,0.09,0.14,45.89530803905776,3.0356615579170536,2.2485944110447096,
56515.0,64.59999999999854,-0.11,-0.14,0.92,-0.02,0.04,0.12,45.700723189026235,3.019001325644725,2.263630861615604,
56515.1,64.69999999999709,-0.11,-0.15,0.92,0.05,0.02,0.12,45.95278772827608,3.014273487873719,2.2847175969283304,
56515.2,64.79999999999563,-0.12,-0.15,0.90,0.14,0.12,0.09,47.42404558870953,3.0036608062046315,2.243498357453307,
56515.3,64.90000000000146,-0.13,-0.12,0.90,0.05,0.05,-0.00,47.41943588867333,3.008505769673597,2.2861033529238868,
56515.4,65.0,-0.12,-0.14,0.91,0.07,-0.04,-0.02,46.09237030138502,3.0179315010826,2.2537977019968953,
56515.5,65.09999999999854,-0.12,-0.12,0.92,0.04,-0.10,-0.01,45.19594229574155,3.030171976653807,2.2657149946249717,
56515.6,65.19999999999709,-0.13,-0.11,0.92,0.06,0.00,0.05,47.49446809892706,3.0506518890377032,2.298746349421983,
56515.7,65.29999999999563,-0.12,-0.11,0.91,0.02,-0.03,0.06,45.68771388458828,3.0273476086969646,2.2658605412006567,
56515.8,65.40000000000146,-0.11,-0.11,0.92,0.02,0.00,0.06,46.45063723997766,3.0161875950701944,2.23353339091421,
56515.9,65.5,-0.11,-0.12,0.90,0.07,0.07,-0.07,46.817795761868155,3.020373727300308,2.2513814692284084,
56516.0,65.59999999999854,-0.12,-0.11,0.91,0.05,-0.02,-0.05,46.812753604119465,3.03468611808489,2.2863267028963907,
56516.1,65.69999999999709,-0.13,-0.12,0.91,0.06,0.01,-0.02,46.64472746195437,3.0463350392417894,2.2719360634052665,
56516.2,65.79999999999563,-0.14,-0.10,0.91,0.03,0.07,-0.00,47.03901146920501,3.0382726660489623,2.270980812981275,
56516.3,65.90000000000146,-0.12,-0.09,0.92,0.01,0.05,0.01,46.76664409597935,3.0941318977517396,2.296292961193517,
56516.4,66.0,-0.12,-0.10,0.94,0.05,0.02,-0.00,46.42493511034776,3.041110901967552,2.2714227123719835,
56516.5,66.09999999999854,-0.13,-0.11,0.92,0.05,0.03,-0.03,47.24489602062852,3.08468683121928,2.2795182017922904,
56516.6,66.19999999999709,-0.12,-0.09,0.92,0.00,-0.00,-0.06,46.83507766621083,3.0506518890377032,2.2828059142379993,
56516.7,66.29999999999563,-0.13,-0.09,0.92,0.04,-0.05,-0.05,47.30793802312673,3.0714108029739546,2.274211388371275,
56516.8,66.40000000000146,-0.13,-0.09,0.92,0.08,-0.02,-0.07,47.34997571277096,3.05875019671487,2.273458640301306,
56516.9,66.5,-0.12,-0.08,0.92,0.04,-0.08,-0.03,47.737155340468284,3.0857878227295195,2.2803353947833696,
56517.0,66.59999999999854,-0.10,-0.08,0.94,0.01,-0.12,-0.03,46.43227002850496,3.1179181864716523,2.2995175556019176,
56517.1,66.69999999999709,-0.04,-0.07,0.94,0.05,-0.12,-0.19,46.051651436186305,3.1134190683822807,2.273431443493741,
56517.2,66.79999999999563,-0.02,-0.08,0.99,0.18,-0.27,-0.45,46.35412495129209,3.1329384866201653,2.2583896786817874,
56517.3,66.90000000000146,0.01,-0.06,0.91,0.19,-0.39,-0.66,45.227179881129004,3.206633820116255,2.2152289509306824,
56517.4,67.0,0.06,-0.04,0.94,0.25,-0.43,-0.81,46.83211931997099,3.2748745590962702,2.1611672914504045,
56517.5,67.09999999999854,0.11,0.03,0.92,0.07,-0.85,-1.33,45.65432838187416,3.359952801539689,2.132582471247363,
56517.6,67.19999999999709,0.25,-0.07,0.96,0.42,-0.23,-1.51,45.21455075526019,3.540648296535061,1.9591218787148341,
56517.7,67.29999999999563,0.04,-0.03,0.95,0.75,0.45,-1.91,44.98684029802493,3.643654232002503,1.9348917247901702,
56517.8,67.40000000000146,-0.02,0.06,0.88,0.92,0.75,-1.66,46.746518586949335,3.877299051297682,1.9335956620529995,
56517.9,67.5,-0.22,0.33,0.81,1.14,1.52,-1.27,49.456449528853156,4.0068690082479,1.9006677134771892,
56518.0,67.59999999999854,-0.38,0.36,0.69,0.80,1.23,-1.08,50.93696987454201,4.115000742751499,1.883709262327109,
56518.1,67.69999999999709,-0.37,0.30,0.68,0.20,0.60,-0.42,51.98312995578469,4.117006229140369,1.8976508751694625,
56518.2,67.79999999999563,-0.51,0.24,0.75,0.16,1.04,-0.30,52.40446832093614,4.101613192867626,1.9151269149090369,
56518.3,67.90000000000146,-0.67,0.26,0.69,0.02,0.46,0.08,53.437586023322574,4.1069997894152825,1.989777272669034,
56518.4,68.0,-0.50,0.36,0.83,-0.01,-0.52,0.17,51.15031475953985,4.091190443737753,1.9983656870858675,
56518.5,68.09999999999854,-0.66,0.35,0.79,0.16,-0.23,0.33,51.51390200712813,4.080808463744154,2.016773713234811,
56518.6,68.19999999999709,-0.62,0.42,0.81,0.65,-0.62,0.76,48.909093224062126,4.047174179817487,1.9512062265702135,
56518.7,68.29999999999563,-0.52,0.49,0.75,0.96,-0.75,1.21,44.50926532756972,4.056509626740159,1.8193642951426563,
56518.8,68.40000000000146,-0.34,0.58,0.62,1.06,-0.94,1.48,41.220898825717036,4.048864962346793,1.736518714697556,
56518.9,68.5,-0.12,0.65,0.52,1.07,-0.85,1.48,39.989681169021594,3.9924997837953935,1.604811659217807,
56519.0,68.59999999999854,0.09,0.71,0.36,1.00,-0.34,1.37,40.34821557392594,3.9476119020556393,1.4650183015444567,
56519.1,68.69999999999709,0.23,0.71,0.31,0.77,-0.38,1.16,39.49948480676678,3.8576727566307905,1.4113857871838156,
56519.2,68.79999999999563,0.39,0.74,0.22,0.41,-0.06,0.69,40.468828745097134,3.7267261257519793,1.367263100206152,
56519.3,68.90000000000146,0.47,0.86,0.25,0.32,-0.58,0.42,40.750143558029336,3.671081502581664,1.342815074297876,
56519.4,69.0,0.45,0.83,0.21,0.12,-0.02,0.02,39.856008329987084,3.671979345287037,1.2896065039557787,
56519.5,69.09999999999854,0.37,0.82,0.23,-0.05,0.13,-0.18,39.01478053251101,3.609399478060266,1.3038924628351503,
56519.6,69.19999999999709,0.39,0.80,0.22,-0.31,0.01,-0.38,40.45399609432917,3.6845323766715814,1.2828055442412252,
56519.7,69.29999999999563,0.32,0.77,0.19,-0.71,0.37,-0.91,40.61211764978527,3.7461837256211257,1.3697506110578541,
56519.8,69.40000000000146,0.13,0.71,0.41,-0.96,0.67,-1.05,39.73972445802814,3.824907876574615,1.4294088003447942,
56519.9,69.5,0.02,0.71,0.52,-1.01,0.69,-1.16,40.252073238530215,3.9208386710163525,1.5362570771208792,
56520.0,69.59999999999854,-0.20,0.64,0.54,-0.76,1.05,-1.37,39.22431261347992,3.9605764490447006,1.6246154712558298,
56520.1,69.69999999999709,-0.34,0.55,0.67,-0.84,0.47,-1.27,41.50996627317348,4.004608508129338,1.7219373553455724,
56520.2,69.79999999999563,-0.54,0.46,0.71,-0.62,0.92,-1.04,42.99217952139668,4.0280404979725555,1.8091358852839037,
56520.3,69.90000000000146,-0.55,0.46,0.76,-0.24,0.35,-0.68,48.410174550397976,4.056080388665922,1.9034837154648474,
56520.4,70.0,-0.62,0.45,0.64,-0.03,0.70,-0.50,51.88777216262035,4.1132473620445555,1.9700421288768308,
56520.5,70.09999999999854,-0.74,0.54,0.75,0.38,-0.01,-0.37,54.83532529309916,4.108673621495035,1.9880083962361537,
56520.6,70.19999999999709,-0.57,0.41,0.59,-0.04,-0.34,0.05,53.991467844465944,4.140603287376958,1.9769321251638643,
56520.7,70.29999999999563,-0.59,0.28,0.78,-0.06,-0.22,-0.04,54.30785302329673,4.158949293112162,1.9754294695646528,
56520.8,70.40000000000146,-0.67,0.24,0.77,0.33,-1.01,0.32,53.150525867577265,4.134531947552097,1.9847735731722649,
56520.9,70.5,-0.55,0.36,0.73,0.39,-1.48,0.60,52.646449073038156,4.135939276829553,1.8466651824903055,
56521.0,70.59999999999854,-0.26,0.48,0.76,0.41,-0.87,0.49,49.493010617661966,4.119869540773562,1.7705336202793878,
56521.1,70.69999999999709,-0.35,0.51,0.60,-0.13,0.18,1.11,48.573657469867356,4.1098871041276235,1.7226963864583285,
56521.2,70.79999999999563,-0.22,0.49,0.68,-0.57,0.12,1.44,48.175705495612625,4.092338094270167,1.8079873296124178,
56521.3,70.90000000000146,-0.13,0.45,0.73,-0.87,0.54,1.73,45.80387210706099,3.962153803967926,1.8320326315716038,
56521.4,71.0,-0.05,0.33,0.81,-0.94,0.79,1.70,46.305162779111356,3.837999780305395,1.9529941063165583,
56521.5,71.09999999999854,0.01,0.21,0.88,-1.28,0.38,1.69,45.27080074396741,3.635216113653959,2.1311294386402784,
56521.6,71.19999999999709,0.08,0.09,1.00,-1.28,0.21,1.44,46.216018867920674,3.359432854019181,2.2259896460138138,
56521.7,71.29999999999563,0.12,0.11,1.01,-0.70,0.19,0.71,45.945796325670536,3.205217019042597,2.2516252343699503,
56521.8,71.40000000000146,-0.11,0.01,0.95,-0.42,0.14,0.28,45.266827810218814,3.1041242895623324,2.2399492378166634,
56521.9,71.5,-0.06,0.00,0.95,-0.13,0.20,0.12,46.36292268612927,3.0323822530163325,2.2568392662029715,
56522.0,71.59999999999854,-0.13,0.00,0.94,-0.04,0.04,0.14,47.22552381922301,2.996517020042452,2.273470495360834,
56522.1,71.69999999999709,-0.10,0.00,0.90,0.04,0.07,0.10,47.078799899742556,3.0161875950701944,2.2504461458282226,
56522.2,71.79999999999563,-0.10,-0.01,0.91,-0.02,-0.04,0.02,47.19520102722309,3.023201254792987,2.274570436953196,
56522.3,71.90000000000146,-0.10,-0.01,0.94,-0.07,-0.06,0.09,46.5049341468193,2.9816093131090757,2.2466006086240062,
56522.4,72.0,-0.12,-0.00,0.90,-0.03,0.03,0.09,47.06871784954419,2.9831537737042697,2.253901886542194,
56522.5,72.09999999999854,-0.10,-0.00,0.92,-0.03,-0.04,-0.01,46.54434981821102,2.9809440161127103,2.2882092373933474,
56522.6,72.19999999999709,-0.08,-0.03,0.93,0.00,-0.05,-0.08,47.068543635850894,2.9482460917499504,2.2599460211011637,
56522.7,72.29999999999563,-0.10,-0.05,0.93,-0.08,-0.08,-0.10,45.21381426068807,2.990101617396763,2.263659572944667,
56522.8,72.40000000000146,-0.12,-0.02,0.92,-0.05,0.02,-0.12,45.332532468416105,2.993175824224565,2.2770420100239943,
56522.9,72.5,-0.11,-0.02,0.93,0.03,0.06,-0.13,45.50734556090917,2.966477374051939,2.253775694351749,
56523.0,72.59999999999854,-0.13,-0.02,0.91,0.03,0.08,-0.08,47.005452875171834,2.9872431886963677,2.2766032085645813,
56523.1,72.69999999999709,-0.14,-0.01,0.92,0.01,0.16,0.02,46.96432688754306,3.0449731164375367,2.292849911463078,
56523.2,72.79999999999563,-0.14,-0.03,0.92,0.03,0.11,0.09,45.51606639418657,3.0112519055535145,2.305426496157324,
56523.3,72.90000000000146,-0.14,-0.04,0.92,0.01,0.02,0.07,46.2520410360451,2.989052931051426,2.2937367232759,
56523.4,73.0,-0.15,-0.04,0.90,0.02,0.04,0.05,46.482521446238266,3.006831222979212,2.318320894572237,
56523.5,73.09999999999854,-0.15,-0.04,0.91,-0.04,0.01,0.00,47.669980071319515,2.9917331637696507,2.2951896299912242,
56523.6,73.19999999999709,-0.16,-0.03,0.93,-0.01,0.04,-0.00,45.81474326022138,2.972803745688453,2.3095459578452444,
56523.7,73.29999999999563,-0.17,-0.04,0.92,0.01,-0.01,0.04,46.8232687880716,2.9951609543595707,2.3291018928360807,
56523.8,73.40000000000146,-0.15,-0.03,0.91,-0.01,0.01,0.05,46.134882681112344,2.9943944032735206,2.325328782936235,
56523.9,73.5,-0.13,-0.04,0.93,-0.01,-0.05,0.02,46.769871712460365,2.975361521778663,2.298233899372897,
56524.0,73.59999999999854,-0.11,-0.04,0.93,0.03,-0.10,-0.07,46.82425546658484,2.99890118513761,2.334390174037411,
56524.1,73.69999999999709,-0.07,-0.03,0.95,0.09,0.01,-0.25,46.89173701197259,2.993175824224565,2.3151792666023656,
56524.2,73.79999999999563,0.01,-0.03,0.98,0.15,-0.06,-0.42,46.48981071159572,3.06337808215345,2.3036101626265095,
56524.3,73.90000000000146,0.03,-0.03,1.00,0.35,-0.22,-1.13,45.76454304371453,3.147658437080048,2.2836559820292077,
56524.4,74.0,-0.05,-0.01,0.95,0.73,0.03,-1.57,45.72559895725807,3.3026566897774656,2.255532243699199,
56524.5,74.09999999999854,-0.10,0.00,0.98,0.79,-0.24,-1.70,46.03507032687145,3.515016778061133,2.2372778860705838,
56524.6,74.19999999999709,-0.22,0.06,0.91,0.81,-0.20,-1.80,46.10286325164631,3.6674840280978698,2.1631517963456997,
56524.7,74.29999999999563,-0.26,0.15,0.89,0.91,0.28,-1.48,46.963639126456115,3.804089152147607,2.1044604989958065,
56524.8,74.40000000000146,-0.36,0.20,0.76,0.97,0.91,-1.23,48.87933203307917,3.9654839727121978,2.0665118465423493,
56524.9,74.5,-0.43,0.32,0.72,0.55,0.93,-1.01,52.09940210789371,4.026943157414055,2.011407580601914,
56525.0,74.59999999999854,-0.53,0.34,0.65,0.29,0.77,-0.69,53.575998357473466,4.128255709979278,1.9988614171413743,
56525.1,74.69999999999709,-0.67,0.28,0.66,0.19,0.98,-0.11,56.047608334343764,4.1765990766678165,2.024390292809472,
56525.2,74.79999999999563,-0.65,0.30,0.63,0.16,1.19,0.01,57.7166674367119,4.1608380250068535,2.080479435976052,
56525.3,74.90000000000146,-0.76,0.26,0.56,0.18,0.86,0.00,61.57737003153026,4.174208500287909,2.1096769121766066,
56525.4,75.0,-0.85,0.30,0.45,0.11,0.16,0.25,59.97173751026395,4.191665658120731,2.1457025978686572,
56525.5,75.09999999999854,-0.77,0.33,0.56,-0.01,-0.10,0.13,57.182739528637484,4.142579971898799,2.1592345471039804,
56525.6,75.19999999999709,-0.89,0.33,0.65,0.14,-0.12,0.19,55.89304607909646,4.115592411242682,2.1428871584811877,
56525.7,75.29999999999563,-0.83,0.44,0.60,0.60,-0.79,0.84,51.90747634011887,4.099832042239178,2.0673799864669284,
56525.8,75.40000000000146,-0.67,0.46,0.63,0.72,-1.38,1.29,47.15404224454146,4.012715196707985,1.9325835494924812,
56525.9,75.5,-0.44,0.56,0.54,0.85,-1.39,1.35,40.50653897829337,4.0880057116215,1.7766587417564048,
56526.0,75.59999999999854,-0.26,0.62,0.48,0.98,-0.89,1.51,38.40446458421208,4.025595523003828,1.6210720778527967,
56526.1,75.69999999999709,-0.02,0.68,0.39,0.90,-0.36,1.38,39.784225517156926,3.981049878497868,1.5642610267506587,
56526.2,75.79999999999563,0.11,0.73,0.34,0.75,-0.30,1.42,40.74053141528716,3.917759238098212,1.4867515337604835,
56526.3,75.90000000000146,0.27,0.82,0.26,0.43,-0.59,1.09,40.260244658968475,3.7869969955853997,1.4430279952605862,
56526.4,76.0,0.39,0.86,0.23,0.33,-0.23,0.61,41.08615581920508,3.703041722851042,1.3199139524225203,
56526.5,76.09999999999854,0.47,0.83,0.26,0.23,-0.01,0.30,40.901057443542946,3.670375214324263,1.3222869402429598,
56526.6,76.19999999999709,0.39,0.80,0.17,0.20,0.16,0.12,41.201593415789155,3.6449984306425636,1.3015457085507698,
56526.7,76.29999999999563,0.42,0.80,0.15,-0.16,0.05,-0.08,41.75492665542594,3.668289864875157,1.3009790054986785,
56526.8,76.40000000000146,0.41,0.76,0.20,-0.62,0.21,-0.51,40.640813230052366,3.674498784103509,1.2885250743653995,
56526.9,76.5,0.35,0.79,0.28,-1.08,0.65,-0.91,40.72822608462097,3.722518921806392,1.3785927930357071,
56527.0,76.59999999999854,0.09,0.74,0.52,-1.04,0.79,-0.99,40.27028060493247,3.8027668039276805,1.5024545666776423,
56527.1,76.69999999999709,-0.05,0.65,0.66,-1.02,0.74,-1.11,39.811003504056515,3.8747438521595217,1.5582366548027629,
56527.2,76.79999999999563,-0.16,0.60,0.60,-0.86,0.87,-1.17,42.811186622190235,3.96371577711359,1.6789226123634846,
56527.3,76.90000000000146,-0.36,0.52,0.67,-0.55,1.30,-1.11,42.938981124381606,4.010967936114827,1.7627079579722673,
56527.4,77.0,-0.44,0.52,0.69,-0.43,0.73,-0.94,46.79299199666548,3.9836957429793047,1.882264130718544,
56527.5,77.09999999999854,-0.56,0.45,0.72,-0.16,0.57,-0.60,49.207175289788786,4.03478319935225,1.9140325294510105,
56527.6,77.19999999999709,-0.69,0.39,0.76,-0.05,0.30,-0.39,52.28453499841038,4.0333978528648835,1.9718232500805812,
56527.7,77.29999999999563,-0.57,0.46,0.71,-0.04,0.13,-0.13,52.71717272388571,4.0741117967588965,1.9675232974051418,
56527.8,77.40000000000146,-0.62,0.40,0.65,-0.07,0.04,-0.07,54.96204963427037,4.07110650449811,2.017029373395938,
56527.9,77.5,-0.57,0.39,0.66,0.01,0.02,-0.11,55.005136123820286,4.065633825548428,2.0100156506294553,
56528.0,77.59999999999854,-0.58,0.39,0.72,0.14,0.09,-0.15,55.436563746321795,4.064311699794859,2.006362410702823,
56528.1,77.69999999999709,-0.69,0.34,0.61,0.07,0.10,-0.17,57.053779015942496,4.07558793883644,2.0220341450824986,
56528.2,77.79999999999563,-0.81,0.26,0.68,0.06,-1.18,0.41,54.82493137250607,4.08958064635317,1.9946862713273736,
56528.3,77.90000000000146,-0.55,0.27,0.76,0.57,-1.27,0.65,51.7848597564964,4.093318794765585,1.8826741826176983,
56528.4,78.0,-0.42,0.38,0.57,0.63,-1.38,0.64,49.8968115213788,4.120467946099695,1.7770788973009048,
56528.5,78.09999999999854,-0.11,0.52,0.64,0.04,-0.58,0.94,46.60221132092339,4.161839580600821,1.699038477514863,
56528.6,78.19999999999709,-0.17,0.52,0.65,-0.61,0.71,1.25,47.54630059215964,4.115665150313759,1.754170870838749,
56528.7,78.29999999999563,-0.14,0.43,0.76,-1.10,0.58,1.59,45.27956382298752,3.980337409433549,1.9009707868429173,
56528.8,78.40000000000146,-0.04,0.24,0.89,-1.50,0.59,1.85,46.683261454187196,3.767832838106854,2.088921734229414,
56528.9,78.5,-0.14,0.05,0.97,-1.51,0.80,1.77,46.39562371603598,3.6313497981428027,2.174275361987385,
56529.0,78.59999999999854,-0.05,0.09,0.93,-0.94,0.78,1.40,45.80337760471383,3.352220814125438,2.2875471586273752,
56529.1,78.69999999999709,-0.22,-0.00,0.93,-0.52,1.01,0.81,46.698559934970156,3.1969027155506042,2.375433282356953,
56529.2,78.79999999999563,-0.23,0.03,0.97,-0.19,0.25,0.24,47.41153657075459,3.070434908079741,2.495311532558114,
56529.3,78.90000000000146,-0.30,0.02,0.96,0.06,0.34,-0.12,44.63099595572566,3.0109275920762935,2.482757828039366,
56529.4,79.0,-0.35,0.05,0.88,0.15,-0.10,-0.05,47.24234117822697,3.014556948141455,2.537451973733484,
56529.5,79.09999999999854,-0.37,0.03,0.85,0.07,-0.10,0.02,47.58387647092238,3.0345449645761637,2.500649253531679,
56529.6,79.19999999999709,-0.39,0.06,0.83,0.01,0.20,0.10,46.653133871155966,3.08849372431602,2.5109738425169996,
56529.7,79.29999999999563,-0.32,0.06,0.88,-0.08,-0.11,0.17,46.16880981788462,3.0484703728566203,2.511384288674445,
56529.8,79.40000000000146,-0.37,0.02,0.87,0.09,0.06,0.02,47.62807365409607,3.0452903951855825,2.5110656248659073,
56529.9,79.5,-0.36,0.05,0.88,0.06,-0.02,0.10,47.306882163169455,3.0046169243985528,2.5485897447811676,
56530.0,79.59999999999854,-0.36,0.05,0.86,0.03,0.01,0.06,46.76147987393042,3.041629775288806,2.5246111386478356,
56530.1,79.69999999999709,-0.35,0.04,0.86,-0.03,0.03,0.01,47.401445125649914,3.0092859972585457,2.5359331775258114,
56530.2,79.79999999999563,-0.36,0.06,0.86,0.01,-0.12,0.01,48.08023814416896,3.069420182467166,2.540770516175448,
56530.3,79.90000000000146,-0.36,0.05,0.86,0.00,-0.03,-0.02,47.20203809159092,3.047844937033349,2.5180746694941782,
56530.4,80.0,-0.34,0.06,0.86,-0.00,-0.02,0.02,46.98136332632334,3.074162569668853,2.5290639309475127,
56530.5,80.09999999999854,-0.34,0.03,0.87,-0.03,-0.01,0.04,48.199328833501404,2.9863369259946766,2.5364449682815895,
56530.6,80.19999999999709,-0.35,0.03,0.88,-0.04,0.02,0.06,47.63096681781717,2.9762705457225174,2.5017826434567465,
56530.7,80.29999999999563,-0.34,0.04,0.87,-0.02,0.01,0.05,47.16627078750238,2.9887508641702625,2.5151408289668056,
56530.8,80.40000000000146,-0.39,0.04,0.85,0.02,0.31,0.03,46.721176141017686,2.9835133856683638,2.5321563242651655,
56530.9,80.5,-0.35,0.05,0.87,0.03,-0.06,0.00,47.326455603605055,2.9994248164306443,2.557104145417549,
56531.0,80.59999999999854,-0.38,0.03,0.87,-0.01,-0.05,0.00,46.95325867285465,3.0012297458008685,2.5358757967871837,
56531.1,80.69999999999709,-0.36,0.04,0.87,-0.11,-0.09,0.04,46.77886916119286,3.0109275920762935,2.517838234153883,
56531.2,80.79999999999563,-0.34,0.01,0.87,-0.05,-0.14,0.02,47.625107873893576,2.949642969600135,2.5201107601876003,
56531.3,80.90000000000146,-0.35,0.03,0.90,0.09,-0.00,-0.04,45.73715448079384,2.9812066954170486,2.4933791905991387,
56531.4,81.0,-0.32,0.03,0.86,0.08,-0.03,0.00,46.02050955823936,2.9863369259946766,2.5033100263674326,
56531.5,81.09999999999854,-0.33,0.04,0.89,0.00,0.07,-0.00,46.365272564711624,2.9507778284998087,2.5088734547452267,
56531.6,81.19999999999709,-0.29,0.04,0.89,0.01,-0.04,-0.04,47.61280920088627,2.9762075975009257,2.5175900981197943,
56531.7,81.29999999999563,-0.20,0.03,0.96,0.14,-0.08,-0.34,46.080332030053775,3.0170579887399747,2.499022902676797,
56531.8,81.40000000000146,-0.15,0.04,0.99,0.47,0.03,-0.73,44.80456003578207,3.0609264372727756,2.489817695499789,
56531.9,81.5,-0.22,0.04,0.90,0.82,0.17,-1.56,47.39477924835181,3.287474912601788,2.4805091356344464,
56532.0,81.59999999999854,-0.42,0.01,0.88,1.09,0.67,-1.58,46.81997330200008,3.528587023432272,2.476128182304236,
56532.1,81.69999999999709,-0.57,0.05,0.88,1.28,0.22,-1.52,46.49608370604991,3.8197956911198037,2.483997680181241,
56532.2,81.79999999999563,-0.49,0.09,1.01,1.20,0.21,-1.59,49.04623634897993,4.0097569734704965,2.317129461788216,
56532.3,81.90000000000146,-0.59,0.17,0.71,0.90,-0.36,-1.21,48.74285280941197,4.089067736400633,2.264882789845206,
56532.4,82.0,-0.71,0.22,0.66,0.68,-0.35,-0.40,52.17980931356495,4.158184060718862,2.1587033362893173,
56532.5,82.09999999999854,-0.53,0.34,0.71,0.47,-0.13,-0.28,52.812602662622105,4.151514068463383,2.079887266563703,
56532.6,82.19999999999709,-0.42,0.32,0.75,0.48,-0.17,-0.25,53.14624445809882,4.169422400420483,2.0229542721243625,
56532.7,82.29999999999563,-0.42,0.26,0.79,0.22,1.33,-0.15,53.83317657355917,4.1122062991071715,1.9893515431992717,
56532.8,82.40000000000146,-0.76,0.28,0.56,0.17,0.30,0.08,54.1180515170308,4.140886141915125,2.080601521481052,
56532.9,82.5,-0.50,0.29,0.75,0.02,-0.55,0.25,52.9985490367425,4.133945743885601,2.074264249960951,
56533.0,82.59999999999854,-0.82,0.36,0.74,0.18,-0.32,0.54,53.069326357134024,4.097580901114294,2.079129478576095,
56533.1,82.69999999999709,-0.62,0.49,0.78,0.70,-1.39,1.40,48.513863997830555,4.061183514627128,1.999118565386478,
56533.2,82.79999999999563,-0.37,0.52,0.72,0.99,-1.44,1.42,44.00898090162961,3.9982044026890673,1.792564774618785,
56533.3,82.90000000000146,-0.17,0.57,0.49,0.95,-1.02,1.43,41.72820389137304,3.9793044385012384,1.7000858061374504,
56533.4,83.0,0.11,0.62,0.54,0.77,-1.49,0.96,39.914028862042976,3.953762216877472,1.606881698417805,
56533.5,83.09999999999854,0.12,0.70,0.47,0.76,-0.20,0.81,40.74742445848572,3.882858206809633,1.4722256547328787,
56533.6,83.19999999999709,0.31,0.77,0.39,0.59,-0.69,0.75,39.62312960885346,3.793557765847119,1.4289899468612415,
56533.7,83.29999999999563,0.35,0.77,0.37,0.35,-0.89,0.46,39.919743235647196,3.7928344187693646,1.3575081474274557,
56533.8,83.40000000000146,0.37,0.78,0.29,0.33,-0.37,0.38,39.653708527702676,3.7456495961787937,1.2667939091148894,
56533.9,83.5,0.39,0.78,0.25,0.30,-0.06,0.29,39.88878915184065,3.7613458924822787,1.2215375667474673,
56534.0,83.59999999999854,0.47,0.78,0.21,0.11,-0.05,0.16,41.54170193913581,3.6945406230388476,1.2201442901791402,
56534.1,83.69999999999709,0.50,0.77,0.27,-0.10,-0.09,-0.04,41.15362195481705,3.713384764357169,1.1979743711948556,
56534.2,83.79999999999563,0.44,0.79,0.23,-0.20,0.02,-0.15,40.187056373912235,3.709463749006958,1.2109788331682534,
56534.3,83.90000000000146,0.42,0.76,0.24,-0.50,0.26,-0.36,39.34111589673074,3.717561154286555,1.2321374934449052,
56534.4,84.0,0.37,0.74,0.27,-0.73,0.58,-0.47,39.779629208930544,3.730765018264878,1.2651519159362343,
56534.5,84.09999999999854,0.29,0.67,0.45,-1.07,0.82,-0.65,40.14976463193776,3.7963235098082393,1.350844001490803,
56534.6,84.19999999999709,0.10,0.64,0.56,-1.05,0.94,-0.79,40.68213735781344,3.8517999732518042,1.4700906690971358,
56534.7,84.29999999999563,0.04,0.56,0.61,-1.09,0.95,-0.89,39.08779988692124,3.9097979410944292,1.5436745658249995,
56534.8,84.40000000000146,-0.13,0.51,0.82,-1.02,0.55,-0.95,41.23733623792885,3.9159377265436843,1.6901463269542967,
56534.9,84.5,-0.27,0.45,0.86,-0.73,1.06,-0.76,42.94682991793457,3.9294987535448835,1.7456215265115838,
56535.0,84.59999999999854,-0.37,0.42,0.91,-0.39,1.62,-0.52,45.58063953039711,3.9678041534281236,1.8333421952912443,
56535.1,84.69999999999709,-0.51,0.36,0.78,-0.16,0.58,-0.30,47.756174469904934,3.9570533563546295,1.9444065557264607,
56535.2,84.79999999999563,-0.46,0.36,0.75,-0.13,0.07,-0.12,51.10661601006273,3.9608552910728494,2.024066785990133,
56535.3,84.90000000000146,-0.48,0.34,0.76,-0.12,0.10,-0.19,53.726467406670245,3.959371768218137,2.0524807509994587,
56535.4,85.0,-0.53,0.36,0.70,0.16,0.26,-0.06,53.62298854036392,3.959814844414204,2.057283336980203,
56535.5,85.09999999999854,-0.54,0.35,0.69,0.00,0.05,-0.02,53.917303345030156,3.9666811534841515,2.0811958801576576,
56535.6,85.19999999999709,-0.56,0.25,0.83,0.06,-0.23,-0.02,54.184896419574336,3.9619809800890247,2.064967234138522,
56535.7,85.29999999999563,-0.48,0.14,0.75,0.31,-0.88,0.18,55.06187610316234,3.949112389730964,2.0605175592038476,
56535.8,85.40000000000146,-0.46,0.37,0.69,0.42,-0.94,0.08,52.54381600150488,4.014071621403263,1.975729046044054,
56535.9,85.5,-0.44,0.35,0.71,-0.56,-0.11,0.41,52.19547873139972,4.094438781401889,1.9474899720768184,
56536.0,85.59999999999854,-0.43,0.31,0.69,-1.27,0.29,1.36,50.7941345038972,4.064596052449394,1.9800018662579337,
56536.1,85.69999999999709,-0.29,0.19,0.84,-1.28,0.31,1.78,48.10339904830011,3.988131846867174,2.145045866351623,
56536.2,85.79999999999563,-0.19,0.10,0.94,-1.21,0.31,1.79,47.22287793008808,3.756781872780858,2.257256294945279,
56536.3,85.90000000000146,-0.18,0.04,0.88,-1.16,0.44,1.60,46.902854923767705,3.580734052475568,2.349123861808203,
56536.4,86.0,-0.26,0.04,1.00,-0.87,0.32,1.28,47.3184319266816,3.3202056058144964,2.4471506641283476,
56536.5,86.09999999999854,-0.30,0.02,0.90,-0.38,0.33,0.94,48.020714280401954,3.188558091719877,2.465922931498979,
56536.6,86.19999999999709,-0.32,-0.01,0.85,-0.06,0.22,0.42,46.47860045225114,3.103053187141711,2.5012220888030345,
56536.7,86.29999999999563,-0.39,-0.02,0.87,0.02,-0.06,0.22,46.23986699807861,3.078845936356496,2.5278120832422863,
56536.8,86.40000000000146,-0.32,0.01,0.88,0.17,0.15,0.02,47.05429310913086,3.0186329232379845,2.51589210778073,
56536.9,86.5,-0.38,0.01,0.87,0.06,0.04,0.03,46.559794887864356,3.062921664611353,2.499961155659971,
56537.0,86.59999999999854,-0.36,0.02,0.86,0.01,0.07,0.07,46.529699117875246,3.039882253662982,2.4887024722199382,
56537.1,86.69999999999709,-0.35,0.03,0.87,-0.07,-0.03,0.03,48.30645298508264,3.0135125292876075,2.5325223864241924,
56537.2,86.79999999999563,-0.33,0.01,0.90,0.07,-0.08,-0.12,47.56112803540303,3.0289304998771778,2.4953316711958378,
56537.3,86.90000000000146,-0.37,0.03,0.86,0.02,-0.07,-0.05,47.26439463274654,3.0697639418302645,2.488925694093015,
56537.4,87.0,-0.33,0.03,0.87,-0.07,-0.11,0.03,47.60593870516576,3.0210829722840717,2.485772698532949,
56537.5,87.09999999999854,-0.32,0.01,0.90,-0.02,-0.13,-0.01,47.09455276356279,3.049155350817154,2.4772986099295493,
56537.6,87.19999999999709,-0.32,-0.01,0.88,0.03,-0.11,-0.03,45.604686162717975,3.05239904099806,2.4692676245564495,
56537.7,87.29999999999563,-0.27,0.00,0.86,-0.05,-0.17,-0.05,47.050174282355215,3.035266615523677,2.440736680131767,
56537.8,87.40000000000146,-0.30,0.01,0.87,-0.04,-0.04,-0.10,48.21403737502181,3.0758679699435416,2.44980624631321,
56537.9,87.5,-0.29,0.00,0.89,-0.06,0.03,-0.09,46.701665923176655,3.0374435672195905,2.438295101192272,
56538.0,87.59999999999854,-0.31,-0.02,0.87,-0.03,-0.00,-0.01,46.51965391100841,3.0235061485983175,2.4273577264809485,
56538.1,87.69999999999709,-0.28,-0.02,0.88,0.03,0.02,0.01,46.76225935516803,3.0732556623616576,2.432159920144929,
56538.2,87.79999999999563,-0.30,-0.03,0.88,0.03,0.02,0.01,49.54417120106058,3.079972535090989,2.4180004748793973,
56538.3,87.90000000000146,-0.28,-0.02,0.90,0.02,-0.04,0.00,46.03876953177615,3.04567601722714,2.4327915179224857,
56538.4,88.0,-0.28,-0.00,0.88,0.07,0.01,-0.03,45.02115724856481,3.038922543486051,2.4366394948066676,
56538.5,88.09999999999854,-0.28,-0.02,0.88,0.05,-0.01,-0.02,46.0223217580339,3.1078401288770006,2.450414714176339,
56538.6,88.19999999999709,-0.25,-0.01,0.91,0.05,-0.09,-0.11,46.77479449447106,3.0853472527682766,2.45344622853242,
56538.7,88.29999999999563,-0.25,-0.00,0.91,0.09,-0.09,-0.20,46.729543117817876,3.091180998337458,2.3887248851618867,
56538.8,88.40000000000146,-0.23,0.00,0.94,0.16,-0.33,-0.26,47.12927009831576,3.14839747402399,2.427661531754204,
56538.9,88.5,-0.14,0.01,0.96,0.25,-0.73,-0.37,46.55713586551475,3.163328360431586,2.335720727439598,
56539.0,88.59999999999854,-0.08,0.02,0.95,0.31,-0.69,-0.51,45.65658879066635,3.2158267013538073,2.2661438668140916,
56539.1,88.69999999999709,-0.02,0.05,0.97,0.32,-0.71,-0.76,44.6143261744476,3.27258162902729,2.220515258350667,
56539.2,88.79999999999563,0.04,0.04,0.98,0.58,-0.79,-1.11,44.406777635851945,3.3961068660269396,2.0966487036077925,
56539.3,88.90000000000146,0.09,0.14,0.90,0.68,-0.26,-1.42,44.89538394980045,3.5191749267132124,2.0417333188658304,
56539.4,89.0,-0.02,0.21,0.95,0.86,-0.02,-1.43,44.9318038809928,3.6553933128793292,1.9754579807295871,
56539.5,89.09999999999854,-0.09,0.32,0.83,1.01,0.43,-1.42,45.52606506167648,3.7943634852776165,1.8951735175036306,
56539.6,89.19999999999709,-0.23,0.33,0.78,0.98,0.49,-1.37,45.654003110351674,3.9126875011935542,1.8787925465674435,
56539.7,89.29999999999563,-0.31,0.46,0.69,0.71,-0.06,-1.19,47.19178318309237,4.061560078126255,1.809539716662556,
56539.8,89.40000000000146,-0.34,0.50,0.60,0.10,0.23,-0.75,48.64285970211867,4.057607024688246,1.7274717649781322,
56539.9,89.5,-0.46,0.41,0.68,-0.17,1.15,-0.25,49.442878152470044,4.060386700563755,1.7443914762876929,
56540.0,89.59999999999854,-0.55,0.46,0.51,-0.25,1.56,0.34,50.98864285309034,4.041916651961527,1.8217115077701285,
56540.1,89.69999999999709,-0.63,0.39,0.67,-0.28,1.03,0.11,52.1321983039273,4.032749702707658,1.9135360220711575,
56540.2,89.79999999999563,-0.79,0.47,0.70,0.28,0.48,0.46,51.27060268809018,4.010585918079748,2.0020150967024515,
56540.3,89.90000000000146,-0.64,0.51,0.88,0.61,-1.00,0.73,50.45870192543602,3.99218931463262,1.993509672306775,
56540.4,90.0,-0.46,0.57,0.77,0.86,-0.82,0.98,44.73608498740139,3.983016087301486,1.834712621110459,
56540.5,90.09999999999854,-0.38,0.60,0.55,1.10,-0.75,1.25,41.54295247090654,3.9797725851962396,1.7089239538385879,
56540.6,90.19999999999709,-0.17,0.64,0.49,1.08,-0.40,1.20,39.76699259436147,4.008891428019889,1.59016032875535,
56540.7,90.29999999999563,-0.01,0.72,0.40,0.97,-0.44,1.20,39.55089632359803,3.9809294780916478,1.5103310233134553,
56540.8,90.40000000000146,0.13,0.81,0.23,0.83,-0.54,1.09,39.95716956942771,3.88541507436939,1.4445766583922182,
56540.9,90.5,0.30,0.79,0.25,0.56,-0.66,0.83,40.02086830642234,3.8252651482707103,1.3437172537549174,
56541.0,90.59999999999854,0.31,0.80,0.25,0.41,-0.32,0.67,39.19045291904649,3.7717966737955293,1.2852296117274924,
56541.1,90.69999999999709,0.41,0.89,0.15,0.41,-0.17,0.46,39.05662683847646,3.6718486759135938,1.241230069331744,
56541.2,90.79999999999563,0.51,0.83,0.10,0.27,-0.10,0.28,39.00789791824215,3.6677354609448223,1.2116584056150501,
56541.3,90.90000000000146,0.42,0.84,0.16,0.00,0.04,0.01,39.90901276654184,3.615717317013205,1.2262514732103371,
56541.4,91.0,0.44,0.86,0.14,-0.17,-0.02,-0.06,39.08714110804217,3.642850380783101,1.2233251617496599,
56541.5,91.09999999999854,0.43,0.81,0.16,-0.34,0.09,-0.33,39.14075369739321,3.658142772184541,1.2224624612362585,
56541.6,91.19999999999709,0.33,0.80,0.17,-0.57,0.42,-0.63,38.998857675578144,3.6636390699698302,1.2317648630706952,
56541.7,91.29999999999563,0.30,0.81,0.28,-0.79,0.18,-0.79,39.31983087450911,3.744380398649734,1.3191654803310324,
56541.8,91.40000000000146,0.15,0.79,0.38,-0.90,0.65,-0.93,39.10731133688431,3.8408259549508976,1.387712071123134,
56541.9,91.5,0.03,0.71,0.44,-0.86,1.01,-1.16,38.91470801637859,3.8942845165138658,1.4673088628034798,
56542.0,91.59999999999854,-0.17,0.65,0.58,-0.83,0.92,-1.32,39.134704547242976,3.977274245652468,1.6063221456784258,
56542.1,91.69999999999709,-0.41,0.64,0.67,-0.56,0.83,-1.16,39.908888734215594,4.052008648379042,1.6742157303178606,
56542.2,91.79999999999563,-0.61,0.56,0.66,-0.25,1.18,-0.69,42.192873805892866,4.014816791933896,1.7974135109204372,
56542.3,91.90000000000146,-0.60,0.61,0.56,-0.12,0.80,-0.50,43.42563874026495,4.062284014723552,1.8188081508099385,
56542.4,92.0,-0.57,0.56,0.57,-0.21,0.11,-0.38,44.95422672007605,4.066534934757142,1.9027461670032413,
56542.5,92.09999999999854,-0.60,0.50,0.58,-0.16,0.27,-0.37,48.707084700277434,4.099108467429883,1.9334684997720197,
56542.6,92.19999999999709,-0.66,0.47,0.57,-0.08,0.28,-0.34,50.309039943135474,4.105522921723342,1.940742490067996,
56542.7,92.29999999999563,-0.71,0.47,0.53,-0.04,0.31,-0.21,52.628735496874704,4.111520178915668,1.9797957573191718,
56542.8,92.40000000000146,-0.73,0.48,0.49,0.15,0.19,0.06,53.71701220283943,4.112978732764056,1.9988913653841376,
56542.9,92.5,-0.69,0.44,0.56,-0.10,-0.25,-0.05,52.8734999787228,4.133638906089993,2.018525974838976,
56543.0,92.59999999999854,-0.70,0.41,0.51,-0.06,-0.35,-0.04,54.439141249656025,4.126748311484388,2.0080008472683533,
56543.1,92.69999999999709,-0.65,0.44,0.58,-0.10,-0.32,-0.00,52.66324239922946,4.096952291466492,2.0028075695995136,
56543.2,92.79999999999563,-0.67,0.31,0.65,-0.03,-0.27,0.03,52.13067235323174,4.10905382709109,1.9376861251566206,
56543.3,92.90000000000146,-0.64,0.29,0.68,0.48,-1.12,0.21,52.27947302718343,4.111085307096353,1.9699951404339275,
56543.4,93.0,-0.49,0.48,0.62,0.40,-0.55,0.49,51.84174958467354,4.154257302375516,1.847651386093371,
56543.5,93.09999999999854,-0.45,0.56,0.54,0.03,0.15,0.63,49.33938487658718,4.160110083006544,1.7763371058881798,
56543.6,93.19999999999709,-0.42,0.55,0.61,-0.73,0.31,0.93,49.63795825776882,4.150915100853097,1.802941693711955,
56543.7,93.29999999999563,-0.46,0.53,0.56,-0.99,0.54,1.05,48.74210295011901,4.1288719926852435,1.883831075702671,
56543.8,93.40000000000146,-0.32,0.45,0.67,-1.14,0.24,1.09,47.65995069237903,4.064062704440515,2.0505982788477546,
56543.9,93.5,-0.38,0.31,0.77,-1.21,0.03,1.01,47.854635094210046,3.9720118114518406,2.1554128893636655,
56544.0,93.59999999999854,-0.29,0.25,0.85,-1.26,0.01,1.17,46.8746082650298,3.829661523921684,2.2628053301986624,
56544.1,93.69999999999709,-0.21,0.19,0.91,-0.95,0.25,1.04,45.53993522173698,3.607637381451022,2.3123726174083847,
56544.2,93.79999999999563,-0.23,0.15,0.92,-0.80,0.06,0.77,46.1406393540445,3.4753181004627036,2.3606068455678892,
56544.3,93.90000000000146,-0.18,0.11,0.92,-0.71,0.03,0.56,46.7217497531931,3.3206452280396035,2.4401066948437915,
56544.4,94.0,-0.18,0.06,0.96,-0.48,0.10,0.17,45.6821650099905,3.1823390643934575,2.4194667800690217,
56544.5,94.09999999999854,-0.27,0.03,0.95,-0.25,-0.03,0.01,45.89345160259795,3.125861404694479,2.41425548998059,
56544.6,94.19999999999709,-0.30,0.03,0.92,-0.04,0.00,-0.09,44.85047268424269,3.1551901418667927,2.4477224803624447,
56544.7,94.29999999999563,-0.30,0.04,0.90,0.00,0.11,-0.04,45.982188943111446,3.1938239246010203,2.4342277841729545,
56544.8,94.40000000000146,-0.29,0.04,0.88,0.02,0.09,0.04,48.572477803793376,3.135816081129325,2.445106396217917,
56544.9,94.5,-0.29,0.01,0.90,-0.02,0.00,0.09,46.20772554454504,3.0803501436889724,2.4285377133661727,
56545.0,94.59999999999854,-0.29,0.01,0.88,-0.03,-0.01,0.10,45.527699260999334,3.130892337104585,2.4518322796613123,
56545.1,94.69999999999709,-0.28,0.01,0.90,-0.03,-0.01,0.07,47.2517851514628,3.1050235976762517,2.466260925978381,
56545.2,94.79999999999563,-0.28,0.02,0.90,-0.02,-0.04,0.05,47.17986222955722,3.066936580806795,2.4698675137408665,
56545.3,94.90000000000146,-0.27,0.02,0.88,-0.01,-0.04,0.04,47.186872115027924,3.1015743211598674,2.4458632102072,
56545.4,95.0,-0.27,0.01,0.89,-0.01,-0.02,0.04,46.42088430868158,3.0756599668841194,2.428826693650347,
56545.5,95.09999999999854,-0.26,0.03,0.90,-0.04,0.00,0.02,47.944711908614075,3.0449864402209577,2.4242820107197915,
56545.6,95.19999999999709,-0.30,0.04,0.91,-0.04,0.01,0.03,46.29434738712708,3.05542672469674,2.4071542627469174,
56545.7,95.29999999999563,-0.28,0.05,0.92,0.03,-0.16,0.18,46.691765869369306,3.0449864402209577,2.400627551033228,
56545.8,95.40000000000146,-0.26,0.04,0.94,-0.01,-0.38,0.34,46.770121872836725,3.0125715751955373,2.398798124498177,
56545.9,95.5,-0.17,0.04,0.88,-0.11,-0.75,0.55,45.88116498085026,2.9718231742321173,2.369135553986994,
56546.0,95.59999999999854,-0.09,0.04,0.93,-0.18,-0.61,0.68,46.082345860426855,2.936950843760015,2.2728675414737554,
56546.1,95.69999999999709,-0.14,0.04,0.89,-0.03,-0.47,0.84,44.457357096435686,2.8661020840519527,2.209402425217147,
56546.2,95.79999999999563,-0.03,-0.04,0.91,-0.02,-0.55,0.74,45.01210614934609,2.7617836959120283,2.165804923203029,
56546.3,95.90000000000146,0.02,-0.06,0.90,0.04,-0.11,0.57,45.75513085982817,2.701169671745757,2.14103166881058,
56546.4,96.0,0.04,-0.07,0.92,-0.08,-0.14,0.52,45.286807129670784,2.6802268432529104,2.095328471762124,
56546.5,96.09999999999854,-0.01,-0.09,0.85,-0.03,0.27,0.37,46.31486802313054,2.6490371680446985,2.095955671899673,
56546.6,96.19999999999709,0.06,-0.09,0.94,-0.04,0.02,0.10,46.09399418579388,2.5700610946639078,2.080000069803422,
