time,ax,ay,az,gx,gy,gz,mx,my,mz,
40425.9,-0.01,0.06,0.90,0.04,0.05,0.16,28.48,8.89,-38.82,
40426.0,-0.08,0.03,0.94,0.02,0.04,-0.10,27.35,9.75,-39.05,
40426.1,-0.06,0.01,0.92,0.03,0.03,0.02,28.22,9.34,-39.07,
40426.2,-0.06,0.01,0.90,-0.03,0.00,0.01,28.68,8.04,-38.06,
40426.3,-0.09,-0.01,0.95,-0.06,-0.04,-0.06,28.34,9.75,-38.06,
40426.4,-0.06,0.03,0.91,-0.01,0.06,0.00,27.89,9.75,-38.51,
40426.5,-0.05,0.00,0.92,-0.02,-0.02,-0.04,28.39,11.40,-39.00,
40426.6,-0.06,0.03,0.92,0.00,-0.02,-0.05,28.01,8.78,-37.06,
40426.7,-0.07,0.01,0.92,0.03,0.02,-0.01,28.00,10.44,-40.07,
40426.8,-0.04,0.01,0.91,0.03,-0.03,-0.02,27.14,10.61,-38.56,
40426.9,-0.01,0.01,0.89,0.00,-0.11,-0.01,26.59,9.88,-38.44,
40427.0,0.06,-0.06,0.89,0.11,-0.39,0.08,28.51,9.93,-40.57,
40427.1,0.07,0.03,0.89,0.10,-0.26,-0.29,26.46,9.24,-40.57,
40427.2,0.07,0.02,0.87,-0.03,-0.11,-0.62,23.53,8.80,-40.85,
40427.3,0.01,0.19,0.87,-0.31,0.36,-0.87,22.52,10.78,-41.07,
40427.4,-0.09,-0.28,0.95,-0.50,0.13,-1.22,22.52,10.44,-40.74,
40427.5,-0.10,-0.09,0.92,-0.51,0.31,-1.20,21.67,13.01,-40.91,
40427.6,-0.14,-0.11,0.93,-0.44,0.49,-1.05,23.55,13.86,-41.74,
40427.7,-0.17,-0.15,0.94,-0.41,0.50,-0.73,23.96,16.81,-41.41,
40427.8,-0.10,-0.21,0.88,-0.56,0.05,-0.39,24.40,18.14,-39.90,
40427.9,0.07,-0.17,0.61,-0.43,0.95,-0.51,25.94,21.39,-37.05,
40428.0,-0.38,-0.46,0.79,-0.13,0.90,-0.49,28.68,25.80,-34.40,
40428.1,-0.22,-0.35,0.77,-0.03,-0.10,-0.08,30.00,27.68,-33.49,
40428.2,-0.28,-0.31,0.86,0.00,0.20,-0.19,29.60,26.18,-31.92,
40428.3,-0.27,-0.33,0.84,-0.05,-0.20,-0.13,29.37,28.58,-32.69,
40428.4,-0.18,-0.38,0.92,-0.06,-0.09,0.04,29.40,29.41,-32.09,
40428.5,-0.31,-0.41,0.98,-0.01,0.09,0.24,28.83,29.56,-32.40,
40428.6,-0.17,-0.31,1.18,0.54,-0.43,0.71,29.19,28.40,-35.21,
40428.7,-0.32,-0.27,1.14,1.02,0.46,0.81,28.34,28.23,-34.03,
40428.8,-0.39,-0.11,0.87,1.04,-0.81,0.98,30.56,25.32,-34.20,
40428.9,-0.07,-0.02,0.84,0.63,-2.15,0.60,27.66,22.07,-36.38,
40429.0,0.03,0.08,0.66,0.71,-1.29,0.18,20.78,20.53,-38.77,
40429.1,0.11,0.23,0.57,0.24,-1.14,-0.13,16.02,19.68,-40.40,
40429.2,0.34,0.14,0.68,-0.32,-0.92,-0.16,10.03,20.19,-41.58,
40429.3,0.29,0.03,0.84,-0.42,0.46,0.05,9.52,21.73,-38.39,
40429.4,0.23,-0.01,0.84,-0.17,-0.28,-0.09,9.35,22.59,-38.56,
40429.5,0.32,-0.03,0.82,-0.23,-0.14,-0.05,8.91,23.82,-38.32,
40429.6,0.36,-0.05,0.88,-0.32,-0.07,-0.09,9.18,23.44,-37.39,
40429.7,0.27,-0.03,0.89,-0.10,0.71,-0.15,8.97,24.61,-35.57,
40429.8,0.31,0.00,0.86,0.06,0.01,-0.07,10.48,24.97,-33.76,
40429.9,0.21,0.01,0.81,-0.02,-0.46,-0.24,11.57,23.78,-34.70,
40430.0,0.22,-0.10,0.89,0.42,-1.02,-0.06,8.71,24.88,-34.28,
40430.1,0.37,0.03,0.87,0.26,0.60,0.03,5.07,22.42,-35.38,
40430.2,0.28,0.08,0.83,0.48,0.17,-0.26,7.11,21.91,-33.93,
40430.3,0.24,0.11,0.85,0.61,1.25,-0.20,9.66,19.53,-36.51,
40430.4,0.33,0.30,0.74,0.22,0.93,-0.65,12.94,16.94,-35.71,
40430.5,-0.09,0.39,0.83,0.50,0.99,-0.22,18.63,14.28,-34.91,
40430.6,-0.13,0.36,0.60,0.08,2.81,-0.35,22.69,11.64,-34.20,
40430.7,-0.09,0.38,0.96,0.91,-1.26,-0.31,30.39,9.41,-29.68,
40430.8,-0.30,0.46,0.77,0.37,-0.00,-0.05,27.14,7.53,-31.86,
40430.9,-0.28,0.45,0.78,-0.09,-0.03,0.02,26.80,5.48,-30.85,
40431.0,-0.32,0.44,0.75,-0.17,0.00,0.06,28.41,6.02,-32.67,
40431.1,-0.29,0.44,0.79,-0.24,0.00,0.08,28.00,5.99,-31.02,
40431.2,-0.29,0.40,0.80,-0.55,-0.13,0.10,27.31,6.33,-32.36,
40431.3,-0.28,0.35,0.82,-0.69,-0.47,0.06,27.33,9.09,-31.40,
40431.4,-0.20,0.28,0.90,-0.64,-0.62,0.04,27.03,10.24,-31.49,
40431.5,-0.18,0.20,0.95,-0.42,-1.17,0.19,23.52,13.51,-33.00,
40431.6,-0.04,0.22,0.93,-0.29,-2.14,0.32,19.27,14.54,-35.21,
40431.7,0.24,0.17,0.67,-0.17,-2.85,0.56,13.80,15.74,-37.22,
40431.8,0.60,-0.04,0.67,-0.40,-0.22,0.37,5.09,19.53,-36.00,
40431.9,0.41,0.03,0.77,-0.18,0.85,0.20,1.53,21.27,-33.67,
40432.0,0.32,-0.07,0.80,0.25,0.54,-0.10,5.58,22.59,-32.86,
40432.1,0.41,0.01,0.84,0.27,-0.76,0.26,6.47,21.15,-35.00,
40432.2,0.52,-0.06,0.72,0.69,0.28,0.35,3.02,20.36,-35.38,
40432.3,0.35,0.16,0.65,0.55,0.48,-0.08,4.14,18.75,-38.06,
40432.4,0.26,0.17,0.74,0.06,0.55,0.11,6.44,14.89,-40.07,
40432.5,0.40,0.20,0.73,-0.28,0.05,0.16,6.95,13.35,-41.58,
40432.6,0.35,0.16,0.69,-0.47,1.09,0.10,5.60,14.76,-42.62,
40432.7,0.19,0.07,0.72,-0.78,0.53,-0.13,9.69,15.40,-40.23,
40432.8,0.40,-0.01,1.06,-1.13,0.59,-0.10,8.66,16.31,-43.25,
40432.9,0.25,-0.12,0.98,-1.03,2.18,-0.12,9.52,20.00,-44.40,
40433.0,0.09,-0.25,0.94,-1.01,0.63,-0.28,18.59,21.90,-40.91,
40433.1,-0.04,-0.32,0.95,-0.71,1.05,-0.24,21.31,23.61,-38.38,
40433.2,-0.06,-0.34,1.05,0.09,1.82,-0.54,28.17,24.64,-37.55,
40433.3,-0.30,-0.30,0.82,-0.03,0.46,-0.23,28.85,23.61,-35.21,
40433.4,-0.10,-0.32,0.87,-0.04,-0.57,0.11,30.22,24.03,-35.95,
40433.5,-0.13,-0.33,0.89,-0.07,0.07,0.11,28.73,23.19,-37.94,
40433.6,-0.16,-0.33,0.86,-0.08,-0.32,0.03,28.86,23.88,-37.25,
40433.7,-0.18,-0.38,0.96,0.08,-0.22,0.31,29.54,24.98,-36.55,
40433.8,-0.09,-0.34,1.12,0.31,-0.20,0.23,30.22,24.98,-35.88,
40433.9,-0.05,-0.28,1.20,1.23,-0.58,0.21,23.80,25.84,-39.08,
40434.0,-0.08,-0.12,0.97,1.52,-0.76,0.44,21.67,23.95,-39.90,
40434.1,0.05,0.04,0.77,1.24,-1.34,0.48,18.44,19.35,-41.41,
40434.2,0.11,0.11,0.74,0.74,-1.21,0.14,15.73,17.91,-40.46,
40434.3,0.23,0.19,0.61,0.35,-0.28,-0.13,11.23,15.57,-41.41,
40434.4,0.24,0.17,0.58,-0.22,-0.64,-0.21,9.42,16.91,-41.86,
40434.5,0.35,0.08,0.65,-0.71,-0.23,-0.05,6.10,20.02,-39.73,
40434.6,0.42,-0.04,0.77,-0.61,-0.16,0.19,6.44,21.05,-39.06,
40434.7,0.44,-0.04,0.85,-0.19,-0.11,-0.13,5.92,22.24,-39.23,
40434.8,0.42,0.04,0.82,-0.10,0.32,-0.08,6.10,21.73,-35.04,
40434.9,0.34,-0.04,0.83,0.28,0.08,0.04,6.50,22.27,-35.39,
40435.0,0.45,0.00,0.79,0.31,-0.08,-0.12,7.12,19.68,-35.71,
40435.1,0.34,0.13,0.78,0.42,0.84,-0.23,5.49,20.25,-37.29,
40435.2,0.29,0.17,1.01,0.38,1.20,-0.35,9.06,16.97,-36.95,
40435.3,0.21,0.19,0.68,0.45,1.80,-0.60,13.45,15.74,-37.22,
40435.4,-0.11,0.28,0.94,0.72,1.56,-0.36,18.03,12.89,-35.62,
40435.5,-0.15,0.31,1.97,1.27,2.68,-0.40,24.61,10.55,-34.81,
40435.6,-0.22,0.37,0.86,0.11,-0.30,-0.10,28.34,8.39,-31.69,
40435.7,-0.28,0.37,0.80,-0.16,-0.15,0.09,27.14,5.87,-32.15,
40435.8,-0.24,0.35,0.82,-0.10,-0.19,0.07,27.83,8.90,-31.19,
40435.9,-0.23,0.35,0.82,-0.24,-0.39,0.12,26.26,9.44,-31.97,
40436.0,-0.18,0.32,0.87,-0.53,-0.35,0.12,26.35,8.83,-32.62,
40436.1,-0.13,0.26,0.88,-0.56,-0.53,0.11,25.26,10.44,-34.37,
40436.2,-0.10,0.20,0.97,-0.26,-1.20,0.16,22.69,13.69,-33.53,
40436.3,0.11,0.22,0.86,-0.31,-2.25,0.33,16.88,14.37,-36.55,
40436.4,0.30,0.13,0.10,-1.02,-2.61,0.64,11.23,16.26,-38.06,
40436.5,0.43,-0.01,0.76,-0.28,0.37,0.20,4.35,19.10,-36.68,
40436.6,0.36,0.07,0.80,-0.08,0.19,0.11,4.90,20.53,-35.21,
40436.7,0.39,-0.00,0.85,-0.02,-0.01,0.01,5.78,20.39,-35.75,
40436.8,0.32,-0.04,0.82,0.12,0.53,0.14,8.15,22.35,-36.69,
40436.9,0.38,-0.00,0.84,0.45,0.17,-0.14,10.37,20.19,-35.88,
40437.0,0.25,0.02,0.79,0.66,0.37,0.05,10.38,19.50,-37.39,
40437.1,0.26,0.14,0.80,0.53,-0.37,0.03,10.37,16.43,-40.91,
40437.2,0.36,0.24,0.76,0.23,-0.30,0.07,8.13,14.27,-41.19,
40437.3,0.34,0.26,0.68,-0.19,0.73,-0.01,7.93,13.04,-42.24,
40437.4,0.19,0.26,0.74,-0.53,0.52,-0.13,12.08,14.03,-43.92,
40437.5,0.18,0.18,0.90,-0.87,0.19,0.09,11.85,14.54,-42.62,
40437.6,0.34,0.05,1.01,-0.88,0.00,-0.22,12.06,16.84,-44.85,
40437.7,0.19,-0.04,0.91,-0.87,1.20,-0.00,11.57,18.99,-43.42,
40437.8,0.03,-0.17,0.91,-0.87,0.95,-0.11,17.56,22.24,-41.91,
40437.9,-0.01,-0.29,0.96,-0.74,0.46,-0.21,21.15,21.73,-41.74,
40438.0,-0.03,-0.28,1.06,-0.68,0.73,-0.22,23.89,24.97,-39.51,
40438.1,-0.14,-0.37,0.84,-0.47,-0.09,-0.03,26.12,25.32,-36.21,
40438.2,0.01,-0.40,1.02,0.10,0.11,-0.11,26.80,26.01,-35.21,
40438.3,-0.11,-0.35,0.80,-0.05,0.37,0.05,27.67,25.80,-33.77,
40438.4,-0.19,-0.40,0.84,0.01,0.05,0.04,28.85,25.32,-35.54,
40438.5,-0.15,-0.38,0.85,-0.02,-0.12,-0.00,30.26,26.67,-34.39,
40438.6,-0.14,-0.39,0.87,-0.05,-0.02,-0.01,28.60,25.75,-33.79,
40438.7,-0.05,-0.42,1.09,0.04,-0.62,0.17,27.66,25.50,-34.03,
40438.8,0.07,-0.42,1.27,0.94,-0.53,0.18,26.31,28.26,-35.49,
40438.9,0.03,-0.27,1.12,1.52,-0.54,0.12,21.88,24.88,-39.32,
40439.0,-0.02,-0.21,1.03,1.91,-0.94,0.23,18.93,22.24,-39.56,
40439.1,0.09,0.12,0.72,1.48,-0.96,0.30,15.98,16.63,-41.24,
40439.2,0.19,0.24,0.61,0.53,-0.32,0.03,13.28,13.86,-43.42,
40439.3,0.19,0.20,0.60,-0.01,-0.55,0.03,10.74,12.78,-44.39,
40439.4,0.26,0.17,0.63,-0.51,-0.47,0.01,9.86,14.89,-42.08,
40439.5,0.33,0.10,0.73,-0.60,-0.39,0.07,7.64,16.77,-41.58,
40439.6,0.42,0.03,0.80,-0.45,-0.42,0.05,6.72,19.05,-40.05,
40439.7,0.43,0.04,0.82,-0.29,0.03,0.07,4.90,20.88,-37.89,
40439.8,0.41,-0.02,0.87,-0.25,0.16,-0.05,6.10,20.35,-36.94,
40439.9,0.42,-0.03,0.74,0.15,0.03,-0.07,7.77,21.05,-36.42,
40440.0,0.32,0.05,0.77,0.37,0.08,0.04,7.98,20.88,-36.21,
40440.1,0.38,0.14,0.88,0.69,0.17,-0.41,7.74,17.86,-36.82,
40440.2,0.39,0.11,0.85,0.82,1.26,-0.71,8.83,15.91,-37.05,
40440.3,-0.01,0.10,1.05,0.94,2.22,-0.71,16.19,12.32,-37.55,
40440.4,-0.22,0.25,0.65,0.40,1.94,-0.59,20.83,8.95,-35.35,
40440.5,-0.19,0.37,0.82,0.37,-0.72,-0.27,29.71,5.99,-31.69,
40440.6,-0.36,0.39,0.75,-0.00,0.61,0.12,28.13,5.07,-33.24,
40440.7,-0.25,0.41,0.81,-0.01,-0.04,0.02,28.51,5.48,-31.19,
40440.8,-0.26,0.42,0.80,-0.11,-0.06,0.02,28.00,4.62,-32.02,
40440.9,-0.22,0.39,0.83,-0.45,-0.20,0.10,28.04,4.92,-31.48,
40441.0,-0.21,0.34,0.84,-0.61,-0.45,0.08,27.31,7.02,-32.02,
40441.1,-0.15,0.27,0.93,-0.45,-0.72,0.17,25.43,9.24,-33.87,
40441.2,-0.08,0.26,0.93,-0.36,-1.62,0.23,22.79,12.27,-34.20,
40441.3,0.19,0.22,0.85,-0.51,-2.07,0.37,18.42,12.15,-37.39,
40441.4,0.53,0.21,0.91,-1.12,-1.70,0.66,10.44,15.18,-37.34,
40441.5,0.37,0.07,0.81,-0.41,0.35,0.09,6.78,18.65,-36.05,
40441.6,0.35,0.02,0.82,0.01,0.23,0.01,8.49,19.68,-35.37,
40441.7,0.34,-0.01,0.84,0.20,-0.05,-0.03,8.79,19.80,-36.03,
40441.8,0.36,0.01,0.83,0.41,-0.13,0.11,9.01,18.14,-36.21,
40441.9,0.34,0.07,0.78,0.54,0.15,-0.20,8.35,18.30,-38.00,
40442.0,0.32,0.11,0.72,0.45,0.12,-0.13,5.92,16.77,-38.89,
40442.1,0.33,0.24,0.71,0.20,0.16,-0.30,6.63,13.90,-41.67,
40442.2,0.21,0.32,0.69,-0.28,0.96,-0.02,8.82,13.31,-42.95,
40442.3,0.22,0.32,0.79,-0.54,0.11,-0.04,9.86,13.18,-43.75,
40442.4,0.24,0.19,0.86,-0.83,0.37,0.13,11.03,15.28,-42.70,
40442.5,0.14,0.08,0.89,-0.85,0.16,0.08,14.14,18.14,-43.25,
40442.6,0.12,-0.04,0.93,-0.77,0.21,-0.02,14.48,18.48,-43.25,
40442.7,0.18,-0.16,0.98,-0.93,0.92,0.27,16.19,21.56,-40.91,
40442.8,0.12,-0.21,1.03,-0.80,0.70,-0.05,18.93,23.95,-41.91,
40442.9,-0.01,-0.30,0.93,-0.61,0.44,-0.08,20.80,23.67,-41.52,
40443.0,-0.10,-0.36,0.95,-0.41,0.11,-0.01,25.55,23.33,-38.50,
40443.1,0.02,-0.37,1.06,-0.02,0.37,-0.14,26.44,23.89,-38.54,
40443.2,-0.13,-0.32,0.79,-0.04,0.18,0.06,27.31,23.12,-36.40,
40443.3,-0.08,-0.41,1.03,-0.09,-0.22,0.05,28.17,23.27,-36.88,
40443.4,-0.03,-0.42,1.21,0.66,-0.51,0.10,26.29,25.84,-37.39,
40443.5,0.01,-0.29,1.15,1.35,-0.74,0.06,23.33,25.24,-39.15,
40443.6,0.09,-0.11,0.97,1.42,-1.10,0.33,20.13,22.07,-40.74,
40443.7,0.15,0.05,0.84,1.31,-0.47,0.12,17.80,19.56,-41.44,
40443.8,0.10,0.17,0.73,0.94,-0.93,0.02,14.74,16.63,-41.09,
40443.9,0.30,0.26,0.64,0.37,-1.26,-0.00,13.45,14.72,-41.58,
40444.0,0.33,0.19,0.59,-0.33,-0.52,-0.02,8.41,14.01,-42.30,
40444.1,0.28,0.11,0.67,-0.41,0.46,0.09,8.15,14.89,-40.07,
40444.2,0.29,0.03,0.82,-0.50,-0.16,-0.12,8.76,17.97,-39.96,
40444.3,0.40,-0.02,0.89,-0.19,0.04,-0.25,8.83,19.68,-38.73,
40444.4,0.32,0.08,0.80,-0.16,0.45,-0.06,8.16,18.92,-38.04,
40444.5,0.32,0.05,0.83,-0.26,0.03,-0.07,10.20,20.60,-36.94,
40444.6,0.38,0.10,0.83,0.29,-0.33,-0.23,9.01,20.19,-36.88,
40444.7,0.41,0.08,0.80,0.37,0.46,-0.18,8.44,18.37,-36.33,
40444.8,0.21,0.13,0.78,0.52,1.62,-0.05,9.02,16.09,-37.54,
40444.9,0.18,0.12,0.89,0.32,2.22,-0.44,13.62,14.54,-37.05,
40445.0,-0.01,0.48,0.94,0.46,-0.10,-0.48,22.36,12.21,-34.63,
40445.1,-0.20,0.28,0.80,0.05,1.70,-0.11,25.60,10.10,-34.70,
40445.2,-0.26,0.35,0.85,0.33,-0.61,-0.11,30.22,9.93,-29.84,
40445.3,-0.28,0.34,0.82,-0.08,0.33,0.06,28.11,8.27,-29.98,
40445.4,-0.25,0.32,0.83,-0.15,-0.18,-0.02,27.46,8.29,-32.42,
40445.5,-0.24,0.33,0.84,-0.19,-0.05,0.02,27.59,8.32,-32.29,
40445.6,-0.21,0.27,0.88,-0.47,-0.35,0.03,26.29,11.12,-32.36,
40445.7,-0.20,0.23,0.91,-0.42,-0.72,0.11,26.46,11.64,-32.53,
40445.8,-0.06,0.20,0.96,-0.34,-1.53,0.14,23.56,13.99,-34.57,
40445.9,0.16,0.17,0.86,-0.39,-2.09,0.24,18.07,15.91,-36.38,
40446.0,0.47,0.20,0.99,-0.76,-1.64,0.47,11.23,18.65,-38.39,
40446.1,0.35,-0.03,0.90,-0.22,0.56,0.08,8.62,20.15,-36.12,
40446.2,0.22,-0.04,0.80,0.18,0.56,-0.12,10.20,21.39,-35.38,
40446.3,0.34,0.06,0.87,0.43,-0.87,0.01,11.91,18.88,-37.94,
40446.4,0.37,0.07,0.85,0.62,0.44,-0.13,10.55,17.97,-39.73,
40446.5,0.17,0.19,0.81,0.42,0.35,0.00,10.89,17.28,-40.40,
40446.6,0.18,0.19,0.73,0.26,-0.15,0.07,12.97,13.41,-42.32,
40446.7,0.34,0.25,0.72,0.02,0.15,-0.09,12.60,12.83,-41.07,
40446.8,0.10,0.28,0.73,-0.36,0.51,0.03,13.24,11.61,-42.86,
40446.9,0.11,0.16,0.85,-0.49,0.21,-0.15,15.51,12.66,-42.25,
40447.0,0.07,0.12,0.85,-0.72,1.12,0.06,16.71,15.88,-42.75,
40447.1,-0.05,0.00,0.92,-0.87,1.17,-0.20,20.03,14.88,-40.89,
40447.2,-0.10,-0.06,0.93,-1.14,0.77,-0.19,24.40,17.45,-40.91,
40447.3,-0.09,-0.21,0.99,-1.24,0.60,-0.23,25.26,21.39,-39.06,
40447.4,-0.18,-0.35,1.06,-0.74,0.24,-0.36,27.51,23.82,-37.77,
40447.5,-0.26,-0.37,0.95,-0.08,0.31,-0.16,29.02,24.81,-36.38,
40447.6,-0.32,-0.33,0.79,-0.05,0.40,-0.12,29.88,25.32,-36.55,
40447.7,-0.20,-0.36,0.93,-0.07,-0.19,-0.02,30.56,27.04,-34.87,
40447.8,-0.27,-0.35,0.96,0.00,-0.03,0.07,29.71,24.81,-35.38,
40447.9,-0.15,-0.35,1.15,0.72,-0.93,0.08,28.71,27.28,-35.80,
40448.0,-0.09,-0.22,1.13,1.10,-0.69,-0.00,26.29,24.13,-36.38,
40448.1,-0.11,-0.17,1.10,1.47,-0.95,0.20,24.06,22.93,-39.23,
40448.2,0.01,0.00,0.85,1.62,-1.47,0.17,19.10,19.68,-40.07,
40448.3,0.14,0.20,0.61,1.03,-0.98,0.16,15.16,15.40,-41.58,
40448.4,0.24,0.30,0.56,0.01,-0.55,0.08,11.71,13.58,-41.57,
40448.5,0.20,0.12,0.67,-0.38,-0.19,0.08,10.37,14.72,-42.58,
40448.6,0.28,0.11,0.78,-0.32,-0.13,0.02,9.31,17.18,-41.36,
40448.7,0.32,0.07,0.82,-0.20,-0.05,0.04,8.72,17.90,-39.26,
40448.8,0.39,0.05,0.90,-0.24,0.15,0.01,8.49,19.68,-37.39,
40448.9,0.29,0.07,0.80,-0.20,0.37,-0.05,11.23,18.84,-37.53,
40449.0,0.20,0.00,0.77,-0.14,-0.29,0.08,10.89,21.39,-36.38,
40449.1,0.54,0.12,0.79,0.28,-2.03,-0.20,9.37,19.45,-36.56,
40449.2,0.36,0.09,0.87,0.38,1.28,-0.20,5.58,19.17,-36.21,
40449.3,0.37,0.16,0.77,0.30,0.34,-0.44,9.35,16.43,-37.89,
40449.4,0.22,0.25,0.80,0.45,0.89,-0.16,11.77,14.33,-38.23,
40449.5,-0.13,0.13,1.03,0.46,3.16,-0.10,16.53,14.03,-36.88,
40449.6,-0.04,0.23,0.87,0.46,0.19,-0.34,23.55,13.52,-36.38,
40449.7,-0.24,0.24,1.65,0.31,2.24,-0.31,24.77,10.60,-34.86,
40449.8,-0.23,0.32,0.87,0.29,-0.40,-0.18,29.88,10.27,-30.52,
40449.9,-0.34,0.35,0.80,-0.08,0.01,0.02,30.31,8.17,-29.76,
40450.0,-0.28,0.33,0.83,-0.13,-0.06,0.05,29.86,8.20,-32.86,
40450.1,-0.26,0.34,0.85,-0.28,-0.30,0.07,28.68,8.73,-31.35,
40450.2,-0.22,0.30,0.85,-0.46,-0.40,0.08,28.68,9.67,-32.23,
40450.3,-0.20,0.23,0.88,-0.47,-0.61,0.12,26.17,12.29,-32.53,
40450.4,-0.09,0.21,0.91,-0.26,-1.04,0.11,25.60,13.52,-35.04,
40450.5,0.00,0.19,0.91,-0.21,-1.07,0.13,21.41,14.31,-35.32,
40450.6,0.11,0.17,0.85,-0.22,-1.42,0.13,18.07,15.23,-35.71,
40450.7,0.24,0.12,0.89,-0.22,-0.99,0.17,13.24,17.24,-36.40,
40450.8,0.40,0.21,0.72,-0.32,-0.75,0.32,9.35,17.45,-37.55,
40450.9,0.43,0.06,0.89,-0.18,0.08,-0.07,5.92,20.19,-35.88,
40451.0,0.21,-0.03,0.82,-0.05,1.17,-0.02,8.99,20.59,-35.46,
40451.1,0.26,-0.01,0.80,0.34,-0.70,-0.17,11.06,19.51,-37.22,
40451.2,0.11,-0.09,0.89,0.35,0.54,-0.05,9.70,19.53,-39.56,
40451.3,0.35,0.16,0.76,0.69,-0.28,0.09,11.91,17.63,-39.73,
40451.4,0.20,0.27,0.67,0.16,0.35,0.01,10.55,15.23,-40.40,
40451.5,0.17,0.26,0.80,-0.28,0.30,-0.07,11.40,16.43,-42.58,
40451.6,0.10,0.21,0.77,-0.64,0.53,-0.06,13.45,17.45,-41.91,
40451.7,0.10,0.14,0.85,-0.88,0.89,0.05,15.59,17.25,-42.32,
40451.8,0.09,0.04,0.96,-0.96,0.55,0.01,18.07,20.36,-41.74,
40451.9,0.07,-0.08,1.01,-0.99,0.70,0.01,19.01,21.65,-41.22,
40452.0,0.01,-0.25,1.06,-1.01,0.39,-0.01,20.52,23.94,-41.47,
40452.1,-0.07,-0.28,1.02,-0.53,0.35,-0.04,23.03,24.98,-40.23,
40452.2,-0.11,-0.31,0.93,-0.27,0.39,-0.12,24.33,24.86,-41.31,
40452.3,-0.14,-0.33,0.94,-0.20,0.03,-0.03,25.60,24.47,-42.83,
40452.4,-0.15,-0.34,0.87,0.01,0.11,-0.04,26.12,23.61,-40.91,
40452.5,-0.17,-0.36,0.86,-0.07,0.03,-0.01,26.12,24.98,-40.91,
40452.6,-0.14,-0.34,0.93,-0.08,0.11,-0.03,25.09,26.35,-39.90,
40452.7,-0.16,-0.37,0.90,0.07,-0.17,0.03,26.63,25.50,-40.40,
40452.8,-0.09,-0.42,1.22,0.57,-0.64,0.04,25.99,27.59,-39.60,
40452.9,-0.01,-0.25,1.16,1.26,-0.82,-0.15,23.89,28.23,-39.06,
40453.0,-0.09,-0.18,1.07,1.46,-0.81,0.13,21.16,24.81,-39.74,
40453.1,0.01,-0.05,0.91,1.48,-1.10,0.12,18.79,21.36,-40.48,
40453.2,0.19,0.20,0.65,1.03,-1.00,0.04,14.48,16.43,-42.25,
40453.3,0.25,0.21,0.61,0.18,-0.94,-0.07,11.24,15.09,-41.76,
40453.4,0.23,0.16,0.57,-0.32,-0.29,0.15,8.15,14.54,-42.08,
40453.5,0.33,0.09,0.74,-0.57,-0.16,0.20,8.30,18.50,-40.50,
40453.6,0.36,0.01,0.81,-0.38,-0.29,0.07,7.38,19.15,-39.52,
40453.7,0.38,-0.01,0.80,-0.24,-0.21,-0.04,7.30,21.22,-37.22,
40453.8,0.36,-0.01,0.89,-0.00,-0.12,-0.04,7.84,20.94,-37.16,
40453.9,0.42,0.10,0.83,0.13,0.07,-0.07,6.95,20.53,-36.88,
40454.0,0.39,0.05,0.76,0.23,0.36,-0.07,5.70,18.78,-37.08,
40454.1,0.39,0.14,0.90,0.32,0.70,-0.29,8.32,17.80,-37.89,
40454.2,0.24,0.14,0.91,0.31,1.13,-0.25,9.86,15.91,-37.39,
40454.3,0.21,0.26,0.69,0.15,0.48,-0.26,13.01,15.74,-37.09,
40454.4,-0.12,0.23,0.97,0.26,2.19,-0.14,17.56,12.66,-36.55,
40454.5,-0.01,0.23,0.88,0.28,0.35,-0.12,21.32,12.66,-35.88,
40454.6,-0.15,0.29,0.86,0.14,1.58,-0.15,24.07,12.00,-34.89,
40454.7,-0.39,0.38,0.78,0.45,-0.09,0.16,30.39,11.12,-31.35,
40454.8,-0.26,0.36,0.85,0.02,0.42,0.06,29.06,8.90,-30.91,
40454.9,-0.28,0.31,0.83,-0.16,-0.26,-0.01,29.45,9.14,-30.76,
40455.0,-0.29,0.29,0.84,-0.28,-0.07,0.04,26.46,9.24,-32.53,
40455.1,-0.29,0.28,0.85,-0.37,-0.08,-0.02,28.92,10.68,-32.17,
40455.2,-0.26,0.21,0.86,-0.33,-0.37,-0.02,27.38,11.65,-30.95,
40455.3,-0.19,0.24,0.92,-0.11,-0.61,0.01,25.89,13.01,-32.68,
40455.4,-0.13,0.20,0.91,-0.15,-0.45,0.07,24.82,14.03,-33.33,
40455.5,-0.08,0.19,0.95,-0.06,-0.94,0.07,23.21,13.52,-34.03,
40455.6,0.03,0.18,0.91,-0.13,-0.99,0.08,20.13,15.23,-34.61,
40455.7,0.09,0.16,0.87,-0.18,-0.90,0.10,15.34,16.60,-36.05,
40455.8,0.21,0.14,0.91,-0.09,-0.79,0.15,13.62,18.31,-37.05,
40455.9,0.35,0.20,0.60,-0.44,-1.27,0.17,11.00,17.54,-36.97,
40456.0,0.29,0.13,0.88,-0.18,0.15,0.06,8.49,19.34,-37.39,
40456.1,0.38,0.05,0.88,0.02,-0.31,0.10,8.10,19.06,-37.22,
40456.2,0.32,-0.03,0.92,0.39,0.46,0.16,9.18,18.65,-36.38,
40456.3,0.34,0.09,0.80,0.66,0.01,-0.08,8.15,17.97,-37.39,
40456.4,0.24,0.14,0.74,0.48,0.44,-0.09,9.68,16.52,-40.83,
40456.5,0.23,0.24,0.75,0.34,0.19,-0.13,10.03,13.01,-42.25,
40456.6,0.20,0.32,0.71,-0.03,0.43,-0.46,11.06,12.97,-42.58,
40456.7,0.05,0.30,0.68,-0.70,0.80,0.03,11.67,12.49,-43.99,
40456.8,0.13,0.24,0.91,-0.77,0.29,-0.04,14.02,13.88,-43.03,
40456.9,-0.00,0.20,0.85,-0.65,1.49,-0.42,16.33,17.02,-43.78,
40457.0,-0.08,0.04,0.97,-1.02,0.41,-0.16,21.15,18.99,-42.08,
40457.1,-0.08,-0.03,1.02,-0.97,0.48,-0.18,22.69,22.93,-42.58,
40457.2,-0.17,-0.15,0.96,-1.03,0.64,-0.21,23.85,24.25,-41.62,
40457.3,-0.22,-0.29,0.99,-0.76,-0.18,-0.11,28.51,27.04,-39.90,
40457.4,-0.18,-0.35,0.97,-0.36,-0.27,-0.01,25.26,28.23,-39.40,
40457.5,-0.18,-0.33,0.85,-0.27,-0.06,0.21,24.75,26.35,-38.89,
40457.6,-0.16,-0.37,0.88,-0.25,-0.11,0.08,24.92,26.52,-41.07,
40457.7,-0.16,-0.36,0.84,-0.13,-0.02,0.00,24.84,26.41,-39.86,
40457.8,-0.17,-0.41,0.86,-0.10,-0.09,0.04,25.26,26.18,-38.39,
40457.9,-0.12,-0.38,0.91,-0.10,-0.11,-0.00,24.57,26.18,-38.39,
40458.0,-0.11,-0.42,0.96,0.02,-0.27,0.12,25.94,28.23,-39.40,
40458.1,-0.02,-0.35,1.12,0.70,-0.51,-0.03,22.52,28.23,-38.39,
40458.2,-0.04,-0.31,1.09,1.17,-0.93,0.12,21.35,28.24,-39.38,
40458.3,0.08,-0.16,1.02,1.55,-1.46,0.13,18.42,23.78,-41.41,
40458.4,0.15,-0.00,0.87,1.49,-1.29,0.13,13.91,21.19,-40.23,
40458.5,0.28,0.17,0.68,0.95,-1.01,-0.01,9.57,17.70,-42.60,
40458.6,0.34,0.17,0.56,0.28,-0.68,-0.17,6.95,15.40,-41.24,
40458.7,0.38,0.18,0.59,-0.21,-0.24,0.02,3.43,15.16,-41.72,
40458.8,0.43,0.10,0.65,-0.58,-0.25,0.12,3.02,18.31,-39.73,
40458.9,0.48,0.00,0.74,-0.41,-0.63,-0.04,2.85,19.85,-39.56,
40459.0,0.52,0.02,0.72,-0.34,0.16,-0.06,1.48,21.90,-37.89,
40459.1,0.53,-0.01,0.74,-0.18,0.01,-0.14,0.79,21.22,-35.88,
40459.2,0.50,0.07,0.81,0.27,0.69,-0.17,1.94,21.56,-36.67,
40459.3,0.36,0.09,0.79,0.33,0.92,-0.12,3.70,19.68,-36.05,
40459.4,0.34,0.09,0.84,0.43,0.24,-0.30,7.12,17.97,-37.39,
40459.5,0.41,0.17,0.80,0.23,0.05,-0.24,6.95,16.43,-37.89,
40459.6,0.27,0.24,0.83,0.22,0.53,-0.10,8.32,16.77,-36.55,
40459.7,0.27,0.25,0.71,0.18,0.86,-0.34,11.74,15.06,-38.22,
40459.8,0.03,0.31,1.02,0.48,1.06,-0.34,14.28,13.31,-37.49,
40459.9,-0.00,0.30,0.86,0.50,0.51,-0.30,16.88,11.98,-36.88,
40460.0,-0.12,0.37,0.87,0.33,0.95,-0.17,20.48,10.01,-35.32,
40460.1,-0.15,0.36,0.85,0.12,1.09,-0.13,23.44,9.11,-34.31,
40460.2,-0.30,0.48,0.83,0.24,-0.04,0.07,27.66,6.67,-33.36,
40460.3,-0.21,0.39,0.82,-0.03,0.07,0.07,27.31,7.21,-33.31,
40460.4,-0.23,0.40,0.82,-0.23,-0.23,0.05,27.48,5.82,-33.20,
40460.5,-0.20,0.38,0.84,-0.52,-0.37,0.12,25.80,5.88,-33.22,
40460.6,-0.15,0.29,0.96,-0.50,-0.65,0.19,25.94,9.07,-34.03,
40460.7,-0.06,0.28,0.90,-0.33,-1.16,0.18,24.75,11.64,-33.53,
40460.8,0.05,0.26,0.90,-0.31,-1.43,0.28,18.47,12.67,-35.21,
40460.9,0.22,0.20,0.82,-0.33,-1.31,0.30,13.97,14.54,-36.72,
40461.0,0.32,0.22,0.34,-0.37,-1.30,0.29,9.18,16.38,-37.72,
40461.1,0.38,0.11,0.82,-0.24,-0.30,0.13,5.75,17.63,-36.72,
40461.2,0.46,0.03,0.80,-0.05,0.77,0.05,6.27,19.17,-36.88,
40461.3,0.28,0.05,0.88,0.48,0.15,-0.02,8.42,18.50,-37.76,
40461.4,0.27,0.01,0.70,0.52,0.24,-0.06,8.32,16.77,-39.90,
40461.5,0.21,0.17,0.67,0.37,0.76,0.09,7.79,15.06,-40.27,
40461.6,0.26,0.20,0.72,0.07,0.25,0.10,9.57,13.12,-40.83,
40461.7,0.20,0.30,0.73,-0.51,0.68,0.16,10.96,12.43,-43.01,
40461.8,0.21,0.24,0.82,-0.80,0.62,-0.01,14.25,14.41,-43.77,
40461.9,0.15,0.11,0.89,-0.97,0.99,-0.06,14.65,16.60,-43.08,
40462.0,0.03,-0.01,0.92,-1.06,1.04,-0.33,17.73,18.99,-42.75,
40462.1,-0.08,-0.17,1.03,-1.02,0.78,-0.14,20.92,22.80,-42.45,
40462.2,-0.10,-0.26,1.08,-0.80,0.23,-0.05,24.57,25.15,-41.74,
40462.3,-0.14,-0.31,0.97,-0.53,0.69,-0.03,25.25,24.80,-41.74,
40462.4,-0.17,-0.34,0.94,-0.30,0.20,0.02,26.63,24.13,-40.84,
40462.5,-0.19,-0.36,0.87,-0.20,0.19,-0.05,26.46,23.61,-38.89,
40462.6,-0.28,-0.43,0.90,-0.11,0.23,0.07,29.12,22.86,-39.07,
40462.7,-0.26,-0.36,0.88,0.06,-0.45,0.03,29.37,24.47,-38.06,
40462.8,-0.16,-0.39,1.03,0.36,-0.76,0.06,26.46,26.01,-37.55,
40462.9,-0.06,-0.35,1.15,0.87,-1.00,0.13,25.23,27.04,-38.94,
40463.0,0.03,-0.24,1.05,1.46,-1.54,-0.00,21.50,25.50,-38.73,
40463.1,0.10,-0.05,0.88,1.56,-1.36,0.04,16.66,22.22,-40.98,
40463.2,0.27,0.12,0.70,1.20,-1.34,-0.08,10.72,18.48,-43.92,
40463.3,0.35,0.20,0.62,0.56,-0.96,-0.05,8.28,15.66,-40.94,
40463.4,0.40,0.21,0.56,0.00,-0.59,-0.17,3.81,14.92,-42.38,
40463.5,0.34,0.11,0.57,-0.45,-0.20,0.14,4.04,15.23,-41.74,
40463.6,0.52,0.09,0.72,-0.51,-0.22,0.31,3.16,16.09,-39.74,
40463.7,0.60,0.05,0.75,-0.34,0.09,-0.14,3.53,18.82,-37.89,
40463.8,0.50,0.06,0.79,-0.19,0.39,-0.17,3.53,18.48,-36.55,
40463.9,0.42,0.08,0.79,0.35,0.43,-0.19,4.56,17.11,-36.21,
40464.0,0.34,0.08,0.82,0.51,0.93,-0.28,4.90,16.77,-37.22,
40464.1,0.31,0.16,0.94,0.37,1.39,-0.42,8.77,15.31,-37.78,
40464.2,0.19,0.24,0.84,0.18,1.78,-0.29,12.14,14.32,-38.73,
40464.3,0.03,0.33,0.87,0.36,0.75,-0.24,17.22,12.30,-37.86,
40464.4,-0.04,0.29,0.82,0.24,1.07,-0.23,22.18,10.44,-35.04,
40464.5,-0.13,0.21,1.90,0.30,1.69,-0.27,25.43,7.87,-33.87,
40464.6,-0.12,0.30,0.88,0.04,-0.54,-0.07,26.97,7.70,-32.70,
40464.7,-0.27,0.31,0.81,-0.15,0.04,0.08,26.46,8.22,-33.53,
40464.8,-0.19,0.32,0.86,-0.33,-0.32,0.07,27.31,9.41,-32.02,
40464.9,-0.13,0.26,0.89,-0.44,-0.56,0.12,24.93,11.08,-33.12,
40465.0,-0.06,0.24,0.88,-0.20,-1.01,0.17,23.41,12.01,-35.21,
40465.1,0.07,0.23,0.91,-0.26,-1.02,0.20,20.30,13.01,-35.54,
40465.2,0.13,0.22,0.89,-0.28,-1.64,0.24,16.38,14.71,-36.52,
40465.3,0.34,0.20,0.24,-0.26,-1.86,0.33,12.62,16.05,-37.04,
40465.4,0.37,0.14,0.84,-0.22,-0.35,0.01,7.26,18.10,-36.78,
40465.5,0.46,0.04,0.83,0.07,0.15,-0.01,8.32,17.80,-37.55,
40465.6,0.36,-0.03,0.88,0.81,-0.06,0.14,8.15,16.60,-38.06,
40465.7,0.40,0.11,0.74,0.93,-0.54,0.11,5.70,15.06,-39.78,
40465.8,0.35,0.18,0.59,0.66,0.44,0.23,4.56,10.27,-42.25,
40465.9,0.30,0.29,0.54,-0.20,0.17,0.17,7.39,10.47,-42.80,
40466.0,0.32,0.27,0.69,-0.82,0.30,0.10,9.01,10.27,-44.26,
40466.1,0.27,0.22,0.84,-0.93,1.33,-0.14,9.86,12.15,-44.42,
40466.2,0.16,0.11,0.91,-0.97,0.74,-0.08,14.23,16.37,-43.83,
40466.3,0.15,-0.03,0.98,-1.00,0.82,-0.06,15.85,20.53,-43.59,
40466.4,0.03,-0.18,1.01,-0.93,0.70,0.02,19.10,22.02,-42.89,
40466.5,0.02,-0.27,1.04,-0.66,0.41,-0.07,18.72,24.81,-41.78,
40466.6,-0.02,-0.30,0.97,-0.53,0.50,-0.02,22.35,23.61,-43.25,
40466.7,-0.05,-0.35,0.89,-0.34,-0.03,-0.05,22.52,23.78,-40.07,
40466.8,-0.10,-0.38,0.89,-0.18,0.59,-0.05,23.55,22.07,-41.07,
40466.9,-0.17,-0.41,0.89,0.02,0.07,0.04,28.34,23.44,-40.07,
40467.0,-0.12,-0.35,0.86,-0.13,-0.08,0.03,26.44,24.05,-40.77,
40467.1,-0.06,-0.38,1.01,-0.04,-0.56,0.07,26.63,23.44,-39.06,
40467.2,0.04,-0.44,1.22,0.86,-0.62,-0.18,24.06,26.69,-38.22,
40467.3,0.00,-0.35,1.19,1.49,-1.21,0.08,21.20,25.04,-40.32,
40467.4,0.09,-0.18,0.97,1.62,-1.65,0.23,16.19,20.53,-41.24,
40467.5,0.20,-0.01,0.71,1.37,-1.10,0.13,12.86,17.35,-41.35,
40467.6,0.29,0.14,0.59,0.83,-1.04,-0.10,7.47,15.91,-41.74,
40467.7,0.41,0.19,0.56,0.18,-0.39,-0.23,4.90,13.01,-41.91,
40467.8,0.48,0.14,0.56,-0.61,-0.30,-0.15,3.51,13.99,-40.38,
40467.9,0.49,0.10,0.69,-0.67,-0.10,0.07,3.53,17.45,-39.56,
40468.0,0.53,0.04,0.71,-0.53,-0.75,0.02,1.85,18.19,-38.66,
40468.1,0.55,0.02,0.71,-0.36,0.46,-0.15,0.28,19.34,-35.38,
40468.2,0.55,-0.08,0.89,0.39,0.69,-0.22,1.74,21.38,-36.70,
40468.3,0.37,0.08,0.77,0.44,0.91,-0.32,1.65,20.02,-35.71,
40468.4,0.48,0.25,0.94,0.41,0.82,-0.68,5.07,16.94,-36.72,
40468.5,0.31,0.26,0.96,0.36,1.95,-0.53,12.07,15.23,-37.19,
40468.6,-0.04,0.27,0.84,0.49,0.75,-0.27,18.07,12.83,-37.05,
40468.7,0.03,0.30,0.86,0.30,1.29,-0.25,20.47,9.75,-35.71,
40468.8,-0.28,0.30,0.59,0.43,1.40,-0.09,26.12,9.58,-33.20,
40468.9,-0.17,0.38,0.86,0.09,-0.15,-0.01,27.48,9.24,-34.20,
40469.0,-0.21,0.37,0.82,-0.19,-0.20,0.07,26.78,7.65,-32.64,
40469.1,-0.21,0.33,0.85,-0.26,-0.29,0.09,26.67,9.11,-32.61,
40469.2,-0.11,0.31,0.88,-0.27,-0.42,0.05,24.92,9.75,-34.03,
40469.3,-0.12,0.28,0.88,-0.29,-0.77,0.12,24.06,10.61,-33.88,
40469.4,-0.00,0.27,0.92,-0.14,-1.46,0.24,20.98,10.27,-36.55,
40469.5,0.19,0.25,0.83,-0.26,-1.44,0.24,15.64,13.83,-37.49,
40469.6,0.27,0.21,0.92,-0.20,-0.82,0.38,12.17,13.61,-38.31,
40469.7,0.44,0.23,0.86,-0.46,-1.54,0.25,8.66,15.74,-36.55,
40469.8,0.45,0.13,0.84,-0.41,0.24,0.15,4.97,17.04,-36.76,
40469.9,0.39,0.01,0.82,0.04,0.60,-0.09,6.44,19.29,-36.72,
40470.0,0.27,0.02,0.76,0.60,0.00,0.05,9.52,20.02,-37.39,
40470.1,0.33,0.03,0.71,0.66,-0.02,0.14,7.22,17.02,-39.06,
40470.2,0.31,0.13,0.60,0.44,0.04,0.18,7.12,12.83,-40.74,
40470.3,0.28,0.23,0.66,-0.01,0.85,-0.08,7.47,12.92,-42.75,
40470.4,0.25,0.34,0.71,-0.56,0.86,0.04,10.03,11.98,-43.25,
40470.5,0.26,0.24,0.83,-0.82,0.63,-0.10,11.57,14.89,-45.09,
40470.6,0.16,0.16,0.92,-0.89,0.92,-0.34,14.08,17.89,-43.08,
40470.7,0.09,0.00,0.98,-0.94,0.96,-0.11,16.02,18.31,-42.75,
40470.8,0.02,-0.14,0.99,-1.07,0.98,-0.02,18.79,22.11,-42.04,
40470.9,-0.05,-0.24,1.08,-0.66,0.65,-0.23,21.39,22.67,-41.62,
40471.0,-0.17,-0.24,0.94,-0.32,0.65,-0.12,24.42,24.27,-40.24,
40471.1,-0.16,-0.31,0.94,-0.35,0.05,-0.12,28.14,23.13,-39.48,
40471.2,-0.20,-0.38,0.93,-0.14,0.50,-0.05,27.14,23.27,-40.57,
40471.3,-0.22,-0.36,0.99,-0.12,-0.30,0.05,28.85,23.61,-38.89,
40471.4,-0.08,-0.32,1.21,0.45,-1.08,0.23,27.57,25.36,-37.19,
40471.5,-0.08,-0.25,1.15,1.18,-0.97,0.24,23.81,25.37,-39.81,
40471.6,0.07,-0.08,1.00,1.33,-1.80,0.24,20.61,22.12,-40.19,
40471.7,0.14,0.01,0.79,1.16,-1.13,0.05,14.99,18.99,-42.75,
40471.8,0.21,0.10,0.65,0.86,-1.21,-0.04,10.72,17.45,-41.91,
40471.9,0.34,0.20,0.60,0.34,-0.87,-0.27,6.77,14.17,-42.38,
40472.0,0.34,0.16,0.62,-0.06,-0.23,-0.03,3.02,15.91,-42.08,
40472.1,0.41,0.09,0.68,-0.35,-0.68,0.25,3.70,15.23,-43.08,
40472.2,0.62,0.11,0.65,-0.27,-0.29,0.44,1.43,16.98,-39.61,
40472.3,0.54,0.06,0.70,-0.27,0.87,-0.13,1.31,16.94,-38.39,
40472.4,0.44,0.06,0.75,-0.18,0.60,-0.24,4.00,18.75,-38.96,
40472.5,0.35,0.03,0.82,-0.07,0.67,-0.15,7.12,19.68,-39.06,
40472.6,0.34,0.13,0.84,0.32,-0.06,-0.21,8.03,17.79,-38.26,
40472.7,0.35,0.25,0.73,0.46,1.70,-0.13,7.91,15.13,-39.45,
40472.8,0.19,0.32,0.60,0.40,1.65,-0.25,11.57,14.20,-39.06,
40472.9,-0.05,0.38,0.90,0.59,1.55,-0.23,18.85,11.88,-37.14,
40473.0,-0.05,0.36,0.86,0.52,1.04,-0.27,23.03,8.56,-35.88,
40473.1,-0.22,0.38,0.81,0.30,1.41,-0.28,26.12,7.19,-34.20,
40473.2,-0.22,0.38,0.79,0.27,-0.08,-0.13,29.04,4.67,-31.69,
40473.3,-0.29,0.42,0.77,-0.23,-0.10,0.07,29.42,4.68,-31.52,
40473.4,-0.27,0.39,0.79,-0.43,-0.18,0.08,29.58,5.82,-30.88,
40473.5,-0.24,0.34,0.84,-0.58,-0.09,0.16,27.97,7.01,-31.68,
40473.6,-0.21,0.28,0.88,-0.60,-0.47,0.11,26.63,8.73,-30.68,
40473.7,-0.14,0.25,0.89,-0.36,-0.67,0.12,27.48,10.61,-31.86,
40473.8,-0.07,0.22,0.89,-0.30,-0.98,0.19,23.89,12.15,-35.04,
40473.9,0.05,0.20,0.81,-0.36,-0.94,0.26,19.62,14.03,-35.63,
40474.0,0.08,0.11,0.92,-0.41,-0.31,0.23,17.58,15.57,-36.14,
40474.1,0.22,0.09,0.98,-0.07,-1.05,0.22,15.85,16.43,-36.88,
40474.2,0.18,0.06,0.88,-0.30,0.14,-0.12,12.86,17.77,-37.14,
40474.3,0.35,0.04,0.91,-0.18,-0.77,-0.13,11.37,19.17,-36.61,
40474.4,0.26,-0.04,0.86,0.23,0.34,0.04,9.76,19.87,-36.29,
40474.5,0.30,0.13,0.86,0.72,0.30,0.30,10.03,18.14,-38.89,
40474.6,0.16,0.14,0.72,0.44,-0.16,0.68,11.23,16.26,-40.07,
40474.7,0.26,0.16,0.78,0.38,0.67,0.26,11.21,14.12,-41.58,
40474.8,0.26,0.26,0.76,0.32,0.49,0.16,13.28,12.49,-41.74,
40474.9,0.19,0.29,0.76,-0.12,0.54,0.26,16.53,10.95,-41.91,
40475.0,0.18,0.22,0.89,-0.48,0.23,0.26,18.63,10.20,-42.20,
40475.1,0.15,0.16,0.96,-0.42,0.18,0.11,19.96,10.95,-42.25,
40475.2,0.29,0.09,1.00,-0.29,-0.24,0.31,18.53,12.27,-41.06,
40475.3,0.22,0.04,0.97,-0.08,0.33,0.18,17.05,12.49,-43.08,
40475.4,0.09,0.03,0.98,0.01,0.74,-0.11,19.44,13.86,-42.41,
40475.5,0.05,0.04,0.90,-0.06,0.41,-0.05,22.06,12.19,-41.68,
40475.6,0.03,0.07,0.93,-0.10,0.11,0.27,23.03,12.32,-42.58,
40475.7,0.08,0.05,0.94,-0.04,-0.11,0.14,23.74,12.96,-41.06,
40475.8,0.05,0.02,0.94,0.01,-0.08,0.09,23.04,13.21,-43.29,
40475.9,0.04,0.03,0.91,0.03,0.08,0.07,23.40,10.33,-40.70,
