Clock Time (s),Elapsed Time (s),ax,ay,az,gx,gy,gz,mr,mtheta,mphi,
40425.9,0.0,-0.01,0.06,0.90,0.04,0.05,0.16,48.96054431886966,0.3025649515642592,2.486322515222307,
40426.0,0.09999999999854481,-0.08,0.03,0.94,0.02,0.04,-0.10,48.66197180550743,0.3424447675444227,2.502227418212363,
40426.1,0.19999999999708962,-0.06,0.01,0.92,0.03,0.03,0.02,49.09245257674544,0.3196228980327578,2.491198743721764,
40426.2,0.2999999999956344,-0.06,0.01,0.90,-0.03,0.00,0.01,48.32957272726503,0.27331906930889893,2.4775538694773562,
40426.3,0.4000000000014552,-0.09,-0.01,0.95,-0.06,-0.04,-0.06,48.4435929716201,0.3313524540860293,2.4745521085198767,
40426.4,0.5,-0.06,0.03,0.91,-0.01,0.06,0.00,48.53797173347893,0.33630743660635454,2.487169928688448,
40426.5,0.5999999999985448,-0.05,0.00,0.92,-0.02,-0.02,-0.04,49.56765174990641,0.38184173291955037,2.476409024733896,
40426.6,0.6999999999970896,-0.06,0.03,0.92,0.00,-0.02,-0.05,47.27676067583311,0.30375874532197367,2.471710199792926,
40426.7,0.7999999999956344,-0.07,0.01,0.92,0.03,0.02,-0.01,49.98598303524699,0.3568906787520818,2.5008043324501417,
40426.8,0.9000000000014552,-0.04,0.01,0.91,0.03,-0.03,-0.02,48.3324456240319,0.3726681486495278,2.494446654042123,
40426.9,1.0,-0.01,0.01,0.89,0.00,-0.11,-0.01,47.77317343447052,0.3557586311866214,2.505857971350906,
40427.0,1.0999999999985448,0.06,-0.06,0.89,0.11,-0.39,0.08,50.57024718151969,0.33515850846991757,2.501851611785798,
40427.1,1.1999999999970896,0.07,0.03,0.89,0.10,-0.26,-0.29,49.309574121056855,0.33596760592613095,2.5370482025800865,
40427.2,1.2999999999956344,0.07,0.02,0.87,-0.03,-0.11,-0.62,47.95647401550702,0.35788546737095894,2.590234954024999,
40427.3,1.4000000000014552,0.01,0.19,0.87,-0.31,0.36,-0.87,48.0635381552378,0.4464511674296577,2.595372099291346,
40427.4,1.5,-0.09,-0.28,0.95,-0.50,0.13,-1.22,47.70630566287857,0.43409601257101915,2.5943743129679975,
40427.5,1.5999999999985448,-0.10,-0.09,0.92,-0.51,0.31,-1.20,48.08822205072672,0.5406909075104935,2.5881652593057325,
40427.6,1.6999999999970896,-0.14,-0.11,0.93,-0.44,0.49,-1.05,49.889174176368165,0.5319467224179428,2.561942747309344,
40427.7,1.7999999999956344,-0.17,-0.15,0.94,-0.41,0.50,-0.73,50.709425159431646,0.6117895853389198,2.526315443985409,
40427.8,1.9000000000014552,-0.10,-0.21,0.88,-0.56,0.05,-0.39,50.16402695159152,0.6392911612932943,2.490448233320964,
40427.9,2.0,0.07,-0.17,0.61,-0.43,0.95,-0.51,50.031172282887795,0.6895591458412407,2.4046673785229933,
40428.0,2.099999999998545,-0.38,-0.46,0.79,-0.13,0.90,-0.49,51.6869654748661,0.7325838879177945,2.299020082876417,
40428.1,2.1999999999970896,-0.22,-0.35,0.77,-0.03,-0.10,-0.08,52.79926609338429,0.74519791872821,2.2578849752552435,
40428.2,2.2999999999956344,-0.28,-0.31,0.86,0.00,0.20,-0.19,50.79801964643897,0.7241625206136508,2.250253639601471,
40428.3,2.400000000001455,-0.27,-0.33,0.84,-0.05,-0.20,-0.13,52.42184086809619,0.771766566043242,2.2441293655712533,
40428.4,2.5,-0.18,-0.38,0.92,-0.06,-0.09,0.04,52.526909294189394,0.7855682025048045,2.2280247310546137,
40428.5,2.599999999998545,-0.31,-0.41,0.98,-0.01,0.09,0.24,52.4854503648392,0.7978996528598389,2.236120168704213,
40428.6,2.6999999999970896,-0.17,-0.31,1.18,0.54,-0.43,0.71,53.83642075769897,0.7716813644208785,2.28368038728845,
40428.7,2.7999999999956344,-0.32,-0.27,1.14,1.02,0.46,0.81,52.51789599745976,0.7834536723003717,2.275711994542177,
40428.8,2.900000000001455,-0.39,-0.11,0.87,1.04,-0.81,0.98,52.38946458974361,0.6918992078148432,2.282075094701932,
40428.9,3.0,-0.07,-0.02,0.84,0.63,-2.15,0.60,50.751008856967566,0.67346104178377,2.3700458701238096,
40429.0,3.099999999998545,0.03,0.08,0.66,0.71,-1.29,0.18,48.542787311813896,0.7793464338394721,2.495889509846193,
40429.1,3.1999999999970896,0.11,0.23,0.57,0.24,-1.14,-0.13,47.70851915538775,0.887562235762905,2.580753242122788,
40429.2,3.2999999999956344,0.34,0.14,0.68,-0.32,-0.92,-0.16,47.29834457991104,1.109727565479341,2.6447681200751276,
40429.3,3.400000000001455,0.29,0.03,0.84,-0.42,0.46,0.05,45.12887545685135,1.1578790306357771,2.588064053296786,
40429.4,3.5,0.23,-0.01,0.84,-0.17,-0.28,-0.09,45.657465983122634,1.1783649547838277,2.5765200359206677,
40429.5,3.599999999998545,0.32,-0.03,0.82,-0.23,-0.14,-0.05,45.99133505346415,1.2128540423627276,2.555666716896125,
40429.6,3.6999999999970896,0.36,-0.05,0.88,-0.32,-0.07,-0.09,45.074583747384736,1.1975190949183228,2.5490333070207085,
40429.7,3.7999999999956344,0.27,-0.03,0.89,-0.10,0.71,-0.15,44.17395046857367,1.2212751358048335,2.5068523168670445,
40429.8,3.900000000001455,0.31,0.00,0.86,0.06,0.01,-0.07,43.27896602276907,1.1734202793222377,2.465551005215028,
40429.9,4.0,0.21,0.01,0.81,-0.02,-0.46,-0.24,43.62846891652285,1.1179719041571445,2.4903847794425564,
40430.0,4.099999999998545,0.22,-0.10,0.89,0.42,-1.02,-0.06,43.24346077732447,1.2340498959719455,2.486056173579403,
40430.1,4.19999999999709,0.37,0.03,0.87,0.26,0.60,0.03,42.19129886599843,1.3483995763693413,2.5654338234125453,
40430.2,4.299999999995634,0.28,0.08,0.83,0.48,0.17,-0.26,41.01030480257371,1.2570082619970326,2.5451749497871274,
40430.3,4.400000000001455,0.24,0.11,0.85,0.61,1.25,-0.20,42.517250616661464,1.1114590359279046,2.603543942521706,
40430.4,4.5,0.33,0.30,0.74,0.22,0.93,-0.65,41.5885957925968,0.9184757806960048,2.6034240927801218,
40430.5,4.599999999998545,-0.09,0.39,0.83,0.50,0.99,-0.22,42.0678428256073,0.6539812976786203,2.5496351606000314,
40430.6,4.69999999999709,-0.13,0.36,0.60,0.08,2.81,-0.35,42.66105601130849,0.47399448632692354,2.5008765845559546,
40430.7,4.799999999995634,-0.09,0.38,0.96,0.91,-1.26,-0.31,43.50864971474063,0.300278412502385,2.32151332791167,
40430.8,4.900000000001455,-0.30,0.46,0.77,0.37,-0.00,-0.05,42.52458230247535,0.2706427661164611,2.4176704442632433,
40430.9,5.0,-0.28,0.45,0.78,-0.09,-0.03,0.02,41.23097015593982,0.20169722531539752,2.416177366296242,
40431.0,5.099999999998545,-0.32,0.44,0.75,-0.17,0.00,0.06,43.711524796099255,0.20880858491352158,2.414936505799207,
40431.1,5.19999999999709,-0.29,0.44,0.79,-0.24,0.00,0.08,42.21516907463477,0.21075184483443035,2.396178358231658,
40431.2,5.299999999995634,-0.29,0.40,0.80,-0.55,-0.13,0.10,42.814420467875074,0.22776136313015924,2.427702041276037,
40431.3,5.400000000001455,-0.28,0.35,0.82,-0.69,-0.47,0.06,42.60888405016024,0.321091792963609,2.399321903886764,
40431.4,5.5,-0.20,0.28,0.90,-0.64,-0.62,0.04,42.74457392465153,0.36213152577328883,2.398976057352649,
40431.5,5.599999999998545,-0.18,0.20,0.95,-0.42,-1.17,0.19,42.71663025099241,0.52138682752591,2.453616750884119,
40431.6,5.69999999999709,-0.04,0.22,0.93,-0.29,-2.14,0.32,42.69061489367423,0.6464008521156246,2.54059421336874,
40431.7,5.799999999995634,0.24,0.17,0.67,-0.17,-2.85,0.56,42.70264628802295,0.8509776523201431,2.6292709353204,
40431.8,5.900000000001455,0.60,-0.04,0.67,-0.40,-0.22,0.37,41.27140656677453,1.3158432318155269,2.6306309214815653,
40431.9,6.0,0.41,0.03,0.77,-0.18,0.85,0.20,39.85502101366903,1.4989877094004642,2.5770100354212317,
40432.0,6.099999999998545,0.32,-0.07,0.80,0.25,0.54,-0.10,40.26442722801356,1.3286319151501942,2.525435015311606,
40432.1,6.19999999999709,0.41,0.01,0.84,0.27,-0.76,0.26,41.402697979721076,1.2739262206804614,2.57802668978543,
40432.2,6.299999999995634,0.52,-0.06,0.72,0.69,0.28,0.35,40.93158193864488,1.4235399721203712,2.6146909738405704,
40432.3,6.400000000001455,0.35,0.16,0.65,0.55,0.48,-0.08,42.6293994797018,1.353483082513712,2.6743442584740453,
40432.4,6.5,0.26,0.17,0.74,0.06,0.55,0.11,43.229510753650686,1.1625860581546443,2.7568981038379263,
40432.5,6.599999999998545,0.40,0.20,0.73,-0.28,0.05,0.16,44.22014699206686,1.0908054479473754,2.794293446949674,
40432.6,6.69999999999709,0.35,0.16,0.69,-0.47,1.09,0.10,45.449774476888216,1.2081703968584034,2.7868572479315654,
40432.7,6.799999999995634,0.19,0.07,0.72,-0.78,0.53,-0.13,44.15324450139536,1.0091676003866001,2.716850018522677,
40432.8,6.900000000001455,0.40,-0.01,1.06,-1.13,0.59,-0.10,47.027377132899936,1.0826865440702116,2.7380536123449537,
40432.9,7.0,0.25,-0.12,0.98,-1.03,2.18,-0.12,49.61844818210259,1.1265323963956553,2.678843135218535,
40433.0,7.099999999998545,0.09,-0.25,0.94,-1.01,0.63,-0.28,49.988260621870005,0.8669653660455314,2.529403827749195,
40433.1,7.19999999999709,-0.04,-0.32,0.95,-0.71,1.05,-0.24,49.84548725812599,0.8365556259367619,2.4496052441080147,
40433.2,7.299999999995634,-0.06,-0.34,1.05,0.09,1.82,-0.54,53.01585611871226,0.7186540494927344,2.3578531659904014,
40433.3,7.400000000001455,-0.30,-0.30,0.82,-0.03,0.46,-0.23,51.2786378524235,0.6858427526391556,2.3276544513518687,
40433.4,7.5,-0.10,-0.32,0.87,-0.04,-0.57,0.11,52.755016823047264,0.6717881152745602,2.320540808338894,
40433.5,7.599999999998545,-0.13,-0.33,0.89,-0.07,0.07,0.11,52.939896108700474,0.6790977523538728,2.36980027132633,
40433.6,7.69999999999709,-0.16,-0.33,0.86,-0.08,-0.32,0.03,52.8272325604891,0.6912518260080828,2.35340101742068,
40433.7,7.799999999995634,-0.18,-0.38,0.96,0.08,-0.22,0.31,53.221372586584046,0.7019533492475379,2.327810549115684,
40433.8,7.900000000001455,-0.09,-0.34,1.12,0.31,-0.20,0.23,53.14718430923693,0.6907542335308503,2.311905138685897,
40433.9,8.0,-0.05,-0.28,1.20,1.23,-0.58,0.21,52.548948609843755,0.8264709419879024,2.409365855387864,
40434.0,8.099999999998545,-0.08,-0.12,0.97,1.52,-0.76,0.44,51.33421276302968,0.8353346935489218,2.461094539224373,
40434.1,8.19999999999709,0.05,0.04,0.77,1.24,-1.34,0.48,49.287363492075734,0.8094739550866721,2.568401761624498,
40434.2,8.299999999995634,0.11,0.11,0.74,0.74,-1.21,0.14,46.95969122556067,0.8501114810428195,2.609190063955311,
40434.3,8.400000000001455,0.23,0.19,0.61,0.35,-0.28,-0.13,45.643465030604325,0.9459447175559934,2.7074934107543904,
40434.4,8.5,0.24,0.17,0.58,-0.22,-0.64,-0.21,46.11880419091544,1.0625437258704473,2.7084609950263867,
40434.5,8.599999999998545,0.35,0.08,0.65,-0.71,-0.23,-0.05,44.90527029202697,1.2750374993605988,2.6567566272681398,
40434.6,8.69999999999709,0.42,-0.04,0.77,-0.61,-0.16,0.19,44.835919751913195,1.2739005467026046,2.6283898698521084,
40434.7,8.799999999995634,0.44,-0.04,0.85,-0.19,-0.11,-0.13,45.48249003737592,1.3106417630516534,2.611044306866615,
40434.8,8.900000000001455,0.42,0.04,0.82,-0.10,0.32,-0.08,41.67978526816087,1.2971220380056356,2.569362296680794,
40434.9,9.0,0.34,-0.04,0.83,0.28,0.08,0.04,42.31613167575694,1.2868125558763701,2.5613398532142115,
40435.0,9.099999999998545,0.45,0.00,0.79,0.31,-0.08,-0.12,41.39083111028335,1.2236582414199912,2.611482661645177,
40435.1,9.19999999999709,0.34,0.13,0.78,0.42,0.84,-0.23,42.78722589745682,1.3060491674033425,2.629093588540874,
40435.2,9.299999999995634,0.29,0.17,1.01,0.38,1.20,-0.35,41.65773637633231,1.0804109052855415,2.661582222562976,
40435.3,9.400000000001455,0.21,0.19,0.68,0.45,1.80,-0.60,42.590826477071325,0.8636893326265381,2.633958684131119,
40435.4,9.5,-0.11,0.28,0.94,0.72,1.56,-0.36,41.95256130440667,0.6206690810489344,2.584988858857003,
40435.5,9.599999999998545,-0.15,0.31,1.97,1.27,2.68,-0.40,43.916861226640506,0.4049898639622896,2.485913544404875,
40435.6,9.69999999999709,-0.22,0.37,0.86,0.11,-0.30,-0.10,43.333633588703364,0.2878271639835834,2.391026185851765,
40435.7,9.799999999995634,-0.28,0.37,0.80,-0.16,-0.15,0.09,42.48127822935652,0.21300494394351277,2.4292059287906467,
40435.8,9.900000000001455,-0.24,0.35,0.82,-0.10,-0.19,0.07,42.73798076652663,0.30952040330972264,2.38881958445942,
40435.9,10.0,-0.23,0.35,0.82,-0.24,-0.39,0.12,42.43562300709158,0.3450970258705084,2.4239780358144944,
40436.0,10.099999999998545,-0.18,0.32,0.87,-0.53,-0.35,0.12,42.85272220057904,0.32334363452368414,2.4359760874572123,
40436.1,10.19999999999709,-0.13,0.26,0.88,-0.56,-0.53,0.11,43.91307436288195,0.3919204757782382,2.4697605138082905,
40436.2,10.299999999995634,-0.10,0.20,0.97,-0.26,-1.20,0.16,42.73772455337322,0.5428787238917817,2.472770850971639,
40436.3,10.400000000001455,0.11,0.22,0.86,-0.31,-2.25,0.33,42.747325062511216,0.7052502207600132,2.5963939464087997,
40436.4,10.5,0.30,0.13,0.10,-1.02,-2.61,0.64,42.88431065086625,0.9663718419500694,2.6626963888719426,
40436.5,10.599999999998545,0.43,-0.01,0.76,-0.28,0.37,0.20,41.58310834942477,1.346867185805079,2.6510746212936773,
40436.6,10.69999999999709,0.36,0.07,0.80,-0.08,0.19,0.11,41.05161385378168,1.3365044551573637,2.6015772276225846,
40436.7,10.799999999995634,0.39,-0.00,0.85,-0.02,-0.01,0.01,41.55987247333658,1.294570681278474,2.6064673879369455,
40436.8,10.900000000001455,0.32,-0.04,0.82,0.12,0.53,0.14,43.72757825446088,1.2211274961941982,2.5663468241652376,
40436.9,11.0,0.38,-0.00,0.84,0.45,0.17,-0.14,42.45641765387184,1.096311703626521,2.577552107163478,
40437.0,11.099999999998545,0.25,0.02,0.79,0.66,0.37,0.05,43.428176337488544,1.0816378500277315,2.607953759735025,
40437.1,11.19999999999709,0.26,0.14,0.80,0.53,-0.37,0.03,45.28918082721302,1.0077778138569202,2.6982113141150266,
40437.2,11.299999999995634,0.36,0.24,0.76,0.23,-0.30,0.07,44.34349895982499,1.052934102787722,2.7621865259914813,
40437.3,11.400000000001455,0.34,0.26,0.68,-0.19,0.73,-0.01,44.91262740032028,1.0244211715782592,2.7948737640011925,
40437.4,11.5,0.19,0.26,0.74,-0.53,0.52,-0.13,47.662707644446726,0.8599438002163895,2.7426574829099515,
40437.5,11.599999999998545,0.18,0.18,0.90,-0.87,0.19,0.09,46.56499221518243,0.8869798635567229,2.7269984782342416,
40437.6,11.69999999999709,0.34,0.05,1.01,-0.88,0.00,-0.22,49.40194024529806,0.9493121349629146,2.7089455820404496,
40437.7,11.799999999995634,0.19,-0.04,0.91,-0.87,1.20,-0.00,48.783003187585734,1.0235899493954665,2.668282105716622,
40437.8,11.900000000001455,0.03,-0.17,0.91,-0.87,0.95,-0.11,50.59070369148861,0.9024485955263357,2.5470648323981244,
40437.9,12.0,-0.01,-0.29,0.96,-0.74,0.46,-0.21,51.592082725937715,0.798923457996496,2.513311330653486,
40438.0,12.099999999998545,-0.03,-0.28,1.06,-0.68,0.73,-0.22,52.49069536594081,0.8074985350871722,2.4229572628423477,
40438.1,12.19999999999709,-0.14,-0.37,0.84,-0.47,-0.09,-0.03,51.32758420186946,0.7698473175327823,2.353880455878543,
40438.2,12.299999999995634,0.01,-0.40,1.02,0.10,0.11,-0.11,51.32742152105442,0.7704399910986559,2.3267571505800397,
40438.3,12.400000000001455,-0.11,-0.35,0.80,-0.05,0.37,0.05,50.71175208962909,0.7504395294257724,2.299523467044957,
40438.4,12.5,-0.19,-0.40,0.84,0.01,0.05,0.04,52.31172430727169,0.7203249499832926,2.3177257013332775,
40438.5,12.599999999998545,-0.15,-0.38,0.85,-0.02,-0.12,-0.00,53.005929856950914,0.7224216533707354,2.276796612888852,
40438.6,12.69999999999709,-0.14,-0.39,0.87,-0.05,-0.02,-0.01,51.213148702262,0.733008245193086,2.2913375845629647,
40438.7,12.799999999995634,-0.05,-0.42,1.09,0.04,-0.62,0.17,50.728359918294224,0.7447884477813363,2.306120924233653,
40438.8,12.900000000001455,0.07,-0.42,1.27,0.94,-0.53,0.18,52.44410167025459,0.8211168850733774,2.314095434084114,
40438.9,13.0,0.03,-0.27,1.12,1.52,-0.54,0.12,51.41800462872903,0.8494677520206455,2.4413916436395358,
40439.0,13.099999999998545,-0.02,-0.21,1.03,1.91,-0.94,0.23,49.17271702885657,0.8656239516511144,2.505648299200802,
40439.1,13.19999999999709,0.09,0.12,0.72,1.48,-0.96,0.30,47.25097776766107,0.8053280602864353,2.6316780064839036,
40439.2,13.299999999995634,0.19,0.24,0.61,0.53,-0.32,0.03,47.47372325824045,0.8067655815175213,2.72534167131919,
40439.3,13.400000000001455,0.19,0.20,0.60,-0.01,-0.55,0.03,47.425184237913086,0.8719163347498222,2.781887304533589,
40439.4,13.5,0.26,0.17,0.63,-0.51,-0.47,0.01,45.71277830103963,0.98589978563007,2.7402321947797543,
40439.5,13.599999999998545,0.33,0.10,0.73,-0.60,-0.39,0.07,45.48075307204136,1.1433155532355967,2.7244069532783546,
40439.6,13.69999999999709,0.42,0.03,0.80,-0.45,-0.42,0.05,44.85602969501424,1.2316684705566772,2.674445230068033,
40439.7,13.799999999995634,0.43,0.04,0.82,-0.29,0.03,0.07,43.53890788708417,1.3402930153622976,2.6265182955291717,
40439.8,13.900000000001455,0.41,-0.02,0.87,-0.25,0.16,-0.05,42.61333242073424,1.2795649606270072,2.619675218593631,
40439.9,14.0,0.42,-0.03,0.74,0.15,0.03,-0.07,42.77723459972606,1.2171896604880987,2.5894210323016327,
40440.0,14.099999999998545,0.32,0.05,0.77,0.37,0.08,0.04,42.553717816425866,1.2057423587547877,2.5885390593628466,
40440.1,14.19999999999709,0.38,0.14,0.88,0.69,0.17,-0.41,41.64852458371124,1.1618570720559798,2.6552858062966,
40440.2,14.299999999995634,0.39,0.11,0.85,0.82,1.26,-0.71,41.2771062454722,1.0641248534431125,2.6850726161488514,
40440.3,14.400000000001455,-0.01,0.10,1.05,0.94,2.22,-0.71,42.70715396745608,0.6504809403900624,2.645068762790038,
40440.4,14.5,-0.22,0.25,0.65,0.40,1.94,-0.59,41.99540331988729,0.40581846272549293,2.5713292274394988,
40440.5,14.599999999998545,-0.19,0.37,0.82,0.37,-0.72,-0.27,43.84997491447401,0.19894855458947283,2.3784847403255442,
40440.6,14.69999999999709,-0.36,0.39,0.75,-0.00,0.61,0.12,43.83947308077505,0.1783201906082707,2.431376239156093,
40440.7,14.799999999995634,-0.25,0.41,0.81,-0.01,-0.04,0.02,42.610639516440024,0.18989722034682893,2.392015174738225,
40440.8,14.900000000001455,-0.26,0.42,0.80,-0.11,-0.06,0.02,42.78580138316916,0.16352661882099317,2.4164112446307398,
40440.9,15.0,-0.22,0.39,0.83,-0.45,-0.20,0.10,42.443355192538675,0.17369547784723832,2.406389382024452,
40441.0,15.099999999998545,-0.21,0.34,0.84,-0.61,-0.45,0.08,42.666109501570446,0.25160165247439137,2.4195822026992655,
40441.1,15.19999999999709,-0.15,0.27,0.93,-0.45,-0.72,0.17,43.35019492459059,0.34851839062391987,2.467560461057198,
40441.2,15.299999999995634,-0.08,0.26,0.93,-0.36,-1.62,0.23,42.89029027647167,0.49388903481872887,2.493742924824713,
40441.3,15.400000000001455,0.19,0.22,0.85,-0.51,-2.07,0.37,43.41579205772941,0.5831006820261183,2.6084367614205686,
40441.4,15.5,0.53,0.21,0.91,-1.12,-1.70,0.66,41.63774249404019,0.9683412517114885,2.6832397987214063,
40441.5,15.599999999998545,0.37,0.07,0.81,-0.41,0.35,0.09,41.150861473364074,1.222111429896961,2.638394590319621,
40441.6,15.69999999999709,0.35,0.02,0.82,0.01,0.23,0.01,41.35721702435985,1.1635152783773304,2.596793945657269,
40441.7,15.799999999995634,0.34,-0.01,0.84,0.20,-0.05,-0.03,42.04122976317415,1.1529938194628646,2.6002465880676167,
40441.8,15.900000000001455,0.36,0.01,0.83,0.41,-0.13,0.11,41.4898035666596,1.1097983031150835,2.6315927431455854,
40441.9,16.0,0.34,0.07,0.78,0.54,0.15,-0.20,42.99549394994783,1.1427288017483774,2.6547482034653784,
40442.0,16.099999999998545,0.32,0.11,0.72,0.45,0.12,-0.13,42.76343531569932,1.2314413312548782,2.7126879285872887,
40442.1,16.19999999999709,0.33,0.24,0.71,0.20,0.16,-0.30,44.42472059563234,1.1257350175962237,2.7875858965991016,
40442.2,16.299999999995634,0.21,0.32,0.69,-0.28,0.96,-0.02,45.821948889151365,0.9855729413826473,2.7856652495681167,
40442.3,16.400000000001455,0.22,0.32,0.79,-0.54,0.11,-0.04,46.74392473894335,0.9285102842323185,2.7817450716065966,
40442.4,16.5,0.24,0.19,0.86,-0.83,0.37,0.13,46.67364673988953,0.9455502751513614,2.7259652093427014,
40442.5,16.599999999998545,0.14,0.08,0.89,-0.85,0.16,0.08,48.985321270764366,0.9086854341278705,2.6528364808103753,
40442.6,16.69999999999709,0.12,-0.04,0.93,-0.77,0.21,-0.02,49.21121112104436,0.9061668015329286,2.644273714212438,
40442.7,16.799999999995634,0.18,-0.16,0.98,-0.93,0.92,0.27,48.99569164732752,0.9267017902840158,2.55887709140563,
40442.8,16.900000000001455,0.12,-0.21,1.03,-0.80,0.70,-0.05,51.849739632904615,0.9019385724368711,2.5120505862859646,
40442.9,17.0,-0.01,-0.30,0.93,-0.61,0.44,-0.08,52.1231167525504,0.8498466742694231,2.492405637833607,
40443.0,17.099999999998545,-0.10,-0.36,0.95,-0.41,0.11,-0.01,51.762355046887116,0.7400120041896666,2.4095097744894503,
40443.1,17.19999999999709,0.02,-0.37,1.06,-0.02,0.37,-0.14,52.489401787408475,0.7347758426875894,2.3953479516590868,
40443.2,17.299999999995634,-0.13,-0.32,0.79,-0.04,0.18,0.06,51.04243822546098,0.7025030954492224,2.3647522676219093,
40443.3,17.400000000001455,-0.08,-0.41,1.03,-0.09,-0.22,0.05,51.91508643930009,0.6904281091041601,2.360849651980465,
40443.4,17.5,-0.03,-0.42,1.21,0.66,-0.51,0.10,52.50601679807753,0.7767661123117283,2.3632937635829006,
40443.5,17.599999999998545,0.01,-0.29,1.15,1.35,-0.74,0.06,52.096727344431145,0.824702597235202,2.421109024923898,
40443.6,17.69999999999709,0.09,-0.11,0.97,1.42,-1.10,0.33,50.5178127000764,0.831337383182128,2.508916910193265,
40443.7,17.799999999995634,0.15,0.05,0.84,1.31,-0.47,0.12,49.160016273390305,0.83247256796971,2.5735609110071036,
40443.8,17.900000000001455,0.10,0.17,0.73,0.94,-0.93,0.02,46.71415845329979,0.845574068121317,2.645827211236578,
40443.9,18.0,0.30,0.26,0.64,0.37,-1.26,-0.00,46.113743070802656,0.8304510784295893,2.6944435263541227,
40444.0,18.099999999998545,0.33,0.19,0.59,-0.33,-0.52,-0.02,45.3464243353321,1.0301669188867573,2.7729542714876674,
40444.1,18.19999999999709,0.28,0.11,0.67,-0.41,0.46,0.09,43.51711732180798,1.0699920858121077,2.7408898810216855,
40444.2,18.299999999995634,0.29,0.03,0.82,-0.50,-0.16,-0.12,44.68176473685882,1.1172154918188424,2.6777156279290697,
40444.3,18.400000000001455,0.40,-0.02,0.89,-0.19,0.04,-0.25,44.331526028324355,1.1490416032970217,2.6334395630214096,
40444.4,18.5,0.32,0.08,0.80,-0.16,0.45,-0.06,43.261918588985395,1.163610381904026,2.645176817398272,
40444.5,18.599999999998545,0.32,0.05,0.83,-0.26,0.03,-0.07,43.50820152568938,1.111039748740735,2.5849530582244453,
40444.6,18.69999999999709,0.38,0.10,0.83,0.29,-0.33,-0.23,42.99942557755859,1.151056498949954,2.6015482988264327,
40444.7,18.799999999995634,0.41,0.08,0.80,0.37,0.46,-0.18,41.5759473734514,1.1401159635673346,2.6338053154565637,
40444.8,18.900000000001455,0.21,0.13,0.78,0.52,1.62,-0.05,41.827025952128125,1.0598539152644675,2.6848772201105615,
40444.9,19.0,0.18,0.12,0.89,0.32,2.22,-0.44,42.06683372919811,0.8180570016843468,2.6482216181103864,
40445.0,19.099999999998545,-0.01,0.48,0.94,0.46,-0.10,-0.48,42.99175037143754,0.4998166170155099,2.5073207517606066,
40445.1,19.19999999999709,-0.20,0.28,0.80,0.05,1.70,-0.11,44.28837319206927,0.3757830654092489,2.4710769964325427,
40445.2,19.299999999995634,-0.26,0.35,0.85,0.33,-0.61,-0.11,43.61512237745069,0.3174758016300298,2.324256399113155,
40445.3,19.400000000001455,-0.28,0.34,0.82,-0.08,0.33,0.06,41.9209422604025,0.2861284803520412,2.3676431382725047,
40445.4,19.5,-0.25,0.32,0.83,-0.15,-0.18,-0.02,43.287782340979305,0.29319319370779207,2.4172589727716,
40445.5,19.599999999998545,-0.24,0.33,0.84,-0.19,-0.05,0.02,43.27903187456947,0.2928860296942835,2.4129648519165627,
40445.6,19.69999999999709,-0.21,0.27,0.88,-0.47,-0.35,0.03,43.15076013235456,0.40015379331096523,2.4187508463551204,
40445.7,19.799999999995634,-0.20,0.23,0.91,-0.42,-0.72,0.11,43.5180663632933,0.41443088096839603,2.415095305838075,
40445.8,19.900000000001455,-0.06,0.20,0.96,-0.34,-1.53,0.14,44.11211398244251,0.5358504640300895,2.471372530616941,
40445.9,20.0,0.16,0.17,0.86,-0.39,-2.09,0.24,43.62519226318665,0.7219167713596636,2.5569725896932107,
40446.0,20.099999999998545,0.47,0.20,0.99,-0.76,-1.64,0.47,44.133065835040284,1.02880128032524,2.6257336675963128,
40446.1,20.19999999999709,0.35,-0.03,0.90,-0.22,0.56,0.08,42.24903904232616,1.1665635782192048,2.596213535444183,
40446.2,20.299999999995634,0.22,-0.04,0.80,0.18,0.56,-0.12,42.58305414128959,1.1258328400194417,2.551424179010709,
40446.3,20.400000000001455,0.34,0.06,0.87,0.43,-0.87,0.01,44.01983757353041,1.0080182998414966,2.609769837691179,
40446.4,20.5,0.37,0.07,0.85,0.62,0.44,-0.13,44.863083933229554,1.0399238615589876,2.6585447496208015,
40446.5,20.599999999998545,0.17,0.19,0.81,0.42,0.35,0.00,45.269752594861835,1.0084604571456839,2.6734947662631425,
40446.6,20.69999999999709,0.18,0.19,0.73,0.26,-0.15,0.07,46.24966378256171,0.802075919434978,2.7263877319143477,
40446.7,20.799999999995634,0.34,0.25,0.72,0.02,0.15,-0.09,44.83429267870744,0.7944423524983188,2.7288892679348473,
40446.8,20.900000000001455,0.10,0.28,0.73,-0.36,0.51,0.03,46.33647914980162,0.7198984323578644,2.7517613151531597,
40446.9,21.0,0.11,0.16,0.85,-0.49,0.21,-0.15,46.75359023647275,0.6845697855432427,2.6990691329064314,
40447.0,21.099999999998545,0.07,0.12,0.85,-0.72,1.12,0.06,48.56913629044684,0.7599357326070938,2.647055744815992,
40447.1,21.19999999999709,-0.05,0.00,0.92,-0.87,1.17,-0.20,47.9020604984796,0.6389323685395905,2.5936858198427033,
40447.2,21.299999999995634,-0.10,-0.06,0.93,-1.14,0.77,-0.19,50.72958308521764,0.6208307686145034,2.5088908460856567,
40447.3,21.400000000001455,-0.09,-0.21,0.99,-1.24,0.60,-0.23,51.19846970369329,0.7026294899036067,2.4386039946927136,
40447.4,21.5,-0.18,-0.35,1.06,-0.74,0.24,-0.36,52.44773970344194,0.713633831094001,2.374808227978408,
40447.5,21.599999999998545,-0.26,-0.37,0.95,-0.08,0.31,-0.16,52.73709225962312,0.7073478637332078,2.3320602714272978,
40447.6,21.69999999999709,-0.32,-0.33,0.79,-0.05,0.40,-0.12,53.57069441401707,0.7029766147240859,2.3216676200189257,
40447.7,21.799999999995634,-0.20,-0.36,0.93,-0.07,-0.19,-0.02,53.67487401009898,0.7243629568077593,2.277923182209139,
40447.8,21.900000000001455,-0.27,-0.35,0.96,0.00,-0.03,0.07,52.44010488166476,0.6957637133021339,2.3113199122943415,
40447.9,22.0,-0.15,-0.35,1.15,0.72,-0.93,0.08,53.386351251982,0.7598634395310891,2.3057912405072734,
40448.0,22.099999999998545,-0.09,-0.22,1.13,1.10,-0.69,-0.00,50.96003728413079,0.7425841996303789,2.3658379141350374,
40448.1,22.19999999999709,-0.11,-0.17,1.10,1.47,-0.95,0.20,51.416547919906094,0.7613551275850786,2.438713060372054,
40448.2,22.299999999995634,0.01,0.00,0.85,1.62,-1.47,0.17,48.55633120407678,0.8003532113522308,2.5414004830941685,
40448.3,22.400000000001455,0.14,0.20,0.61,1.03,-0.98,0.16,46.86023900920694,0.7932514050894414,2.662295834788967,
40448.4,22.5,0.24,0.30,0.56,0.01,-0.55,0.08,45.272567852950424,0.8592061146410616,2.7343491055557987,
40448.5,22.599999999998545,0.20,0.12,0.67,-0.38,-0.19,0.08,46.23063594630729,0.9570675050590148,2.7415240320332233,
40448.6,22.69999999999709,0.28,0.11,0.78,-0.32,-0.13,0.02,45.74361266887433,1.0741860792514037,2.7002289113745994,
40448.7,22.799999999995634,0.32,0.07,0.82,-0.20,-0.05,0.04,44.0204043597966,1.1174807849841835,2.6722352795682127,
40448.8,22.900000000001455,0.39,0.05,0.90,-0.24,0.15,0.01,43.09750108765008,1.1635152783773304,2.6210867646030707,
40448.9,23.0,0.29,0.07,0.80,-0.20,0.37,-0.05,43.46906256178065,1.0332699297199786,2.612712513796062,
40449.0,23.099999999998545,0.20,0.00,0.77,-0.14,-0.29,0.08,43.58472897701671,1.0998822162902688,2.558376911453178,
40449.1,23.19999999999709,0.54,0.12,0.79,0.28,-2.03,-0.20,42.45860336845762,1.121856586101514,2.6081744417958035,
40449.2,23.299999999995634,0.36,0.09,0.87,0.38,1.28,-0.20,41.34959975622497,1.2875431479340975,2.637687739889021,
40449.3,23.400000000001455,0.37,0.16,0.77,0.30,0.34,-0.44,42.344060976717856,1.0534217479958479,2.678807626583187,
40449.4,23.5,0.22,0.25,0.80,0.45,0.89,-0.16,42.49017180478328,0.8831697169351685,2.6899639479390216,
40449.5,23.599999999998545,-0.13,0.13,1.03,0.46,3.16,-0.10,42.78102616815076,0.7037736412500567,2.6101254229518633,
40449.6,23.69999999999709,-0.04,0.23,0.87,0.46,0.19,-0.34,45.39710673600246,0.5211558863544397,2.500382806729951,
40449.7,23.799999999995634,-0.24,0.24,1.65,0.31,2.24,-0.31,44.05828525941517,0.40435569783310066,2.4836053027065983,
40449.8,23.900000000001455,-0.23,0.32,0.87,0.29,-0.40,-0.18,43.92900750073919,0.3310586631061774,2.338878778004833,
40449.9,24.0,-0.34,0.35,0.80,-0.08,0.01,0.02,43.25624347998795,0.2632905021544007,2.329516433422426,
40450.0,24.099999999998545,-0.28,0.33,0.83,-0.13,-0.06,0.05,45.15129234030849,0.26800812280039654,2.385868945370474,
40450.1,24.19999999999709,-0.26,0.34,0.85,-0.28,-0.30,0.07,43.37715758322576,0.29548246045274906,2.3785414786130294,
40450.2,24.299999999995634,-0.22,0.30,0.85,-0.46,-0.40,0.08,44.21339389822952,0.325198456311969,2.387604566526676,
40450.3,24.400000000001455,-0.20,0.23,0.88,-0.47,-0.61,0.12,43.521418864738315,0.43905099225189326,2.4150086248035136,
40450.4,24.5,-0.09,0.21,0.91,-0.26,-1.04,0.11,45.45274469160251,0.4858936295069378,2.45106579202915,
40450.5,24.599999999998545,0.00,0.19,0.91,-0.21,-1.07,0.13,43.71117248484648,0.5891873095091971,2.511599263214779,
40450.6,24.69999999999709,0.11,0.17,0.85,-0.22,-1.42,0.13,42.82151211715906,0.7003187568163715,2.556981324142576,
40450.7,24.799999999995634,0.24,0.12,0.89,-0.22,-0.99,0.17,42.39664137641093,0.9158860700766172,2.603247991954613,
40450.8,24.900000000001455,0.40,0.21,0.72,-0.32,-0.75,0.32,42.44911659858188,1.0789076405893028,2.6564072368957117,
40450.9,25.0,0.43,0.06,0.89,-0.18,0.08,-0.07,41.59395268545658,1.285576363039545,2.611233396194878,
40451.0,25.099999999998545,0.21,-0.03,0.82,-0.05,1.17,-0.02,41.97832535964245,1.1591249833630017,2.576841188311447,
40451.1,25.19999999999709,0.26,-0.01,0.80,0.34,-0.70,-0.17,43.4544830828765,1.05507921299084,2.5993014213402748,
40451.2,25.299999999995634,0.11,-0.09,0.89,0.35,0.54,-0.05,45.17194372616702,1.1098148312473217,2.6378142494880294,
40451.3,25.400000000001455,0.35,0.16,0.76,0.69,-0.28,0.09,45.06814728830108,0.9766668282023557,2.6499400109723363,
40451.4,25.5,0.20,0.27,0.67,0.16,0.35,0.01,44.4456454559949,0.9649785697304768,2.7116158923139313,
40451.5,25.599999999998545,0.17,0.26,0.80,-0.28,0.30,-0.07,47.04212261367465,0.9642079872982745,2.702519914880009,
40451.6,25.69999999999709,0.10,0.21,0.77,-0.64,0.53,-0.06,47.34821115945142,0.914132110846574,2.657600393118751,
40451.7,25.799999999995634,0.10,0.14,0.85,-0.88,0.89,0.05,48.28657163228717,0.8359032893142857,2.6392024727388796,
40451.8,25.900000000001455,0.09,0.04,0.96,-0.96,0.55,0.01,49.832540573404444,0.8449166461239371,2.5636810167315023,
40451.9,26.0,0.07,-0.08,1.01,-0.99,0.70,0.01,50.29106282432297,0.8502358296679661,2.531558987080952,
40452.0,26.099999999998545,0.01,-0.25,1.06,-1.01,0.39,-0.01,52.09563225453742,0.8621700546672264,2.4915137168393575,
40452.1,26.19999999999709,-0.07,-0.28,1.02,-0.53,0.35,-0.04,52.65770788782968,0.8259923886230018,2.4402719763939738,
40452.2,26.299999999995634,-0.11,-0.31,0.93,-0.27,0.39,-0.12,54.00448685063122,0.7961722941565474,2.441738974420551,
40452.3,26.400000000001455,-0.14,-0.33,0.94,-0.20,0.03,-0.03,55.57472267137282,0.7628335896028937,2.4506946810282235,
40452.4,26.5,-0.15,-0.34,0.87,0.01,0.11,-0.04,53.97512945792719,0.7349684054735505,2.430948249861453,
40452.5,26.599999999998545,-0.17,-0.36,0.86,-0.07,0.03,-0.01,54.58830369227459,0.7630926657390753,2.417993956344545,
40452.6,26.69999999999709,-0.14,-0.34,0.93,-0.08,0.11,-0.03,53.99852405390355,0.8098878231502753,2.4022462082601472,
40452.7,26.799999999995634,-0.16,-0.37,0.90,0.07,-0.17,0.03,54.695218255346596,0.7637249797412555,2.4018448826745047,
40452.8,26.900000000001455,-0.09,-0.42,1.22,0.57,-0.64,0.04,54.816495692446445,0.8152511806367937,2.3780780887106228,
40452.9,27.0,-0.01,-0.25,1.16,1.26,-0.82,-0.15,53.78985592098198,0.8684758810429059,2.3835153011496377,
40453.0,27.099999999998545,-0.09,-0.18,1.07,1.46,-0.81,0.13,51.405732170644164,0.8646315472177352,2.4544560957328274,
40453.1,27.19999999999709,0.01,-0.05,0.91,1.48,-1.10,0.12,49.47670259829367,0.8493209181794709,2.5290049253373574,
40453.2,27.299999999995634,0.19,0.20,0.65,1.03,-1.00,0.04,47.58863099522826,0.8484010501834452,2.663376148320411,
40453.3,27.400000000001455,0.25,0.21,0.61,0.18,-0.94,-0.07,45.80331101568969,0.9305902741035297,2.71825886549114,
40453.4,27.5,0.23,0.16,0.57,-0.32,-0.29,0.15,45.26102628089645,1.0599101824535464,2.764443241784769,
40453.5,27.599999999998545,0.33,0.09,0.74,-0.57,-0.16,0.20,45.29227307168409,1.149066753684904,2.677419997639669,
40453.6,27.69999999999709,0.36,0.01,0.81,-0.38,-0.29,0.07,44.531082403193395,1.202957808799595,2.6626224843194612,
40453.7,27.799999999995634,0.38,-0.01,0.80,-0.24,-0.21,-0.04,43.46155542545618,1.2394632021325,2.5990314182193064,
40453.8,27.900000000001455,0.36,-0.01,0.89,-0.00,-0.12,-0.04,43.36836173986746,1.2125491070627805,2.5999167444679383,
40453.9,28.0,0.42,0.10,0.83,0.13,0.07,-0.07,42.777538498609296,1.2443769997846479,2.6102641224747334,
40454.0,28.099999999998545,0.39,0.05,0.76,0.23,0.36,-0.07,41.953602944204924,1.276118460001603,2.654790868955818,
40454.1,28.19999999999709,0.39,0.14,0.90,0.32,0.70,-0.29,42.681547535205425,1.1335542365460132,2.663202699682428,
40454.2,28.299999999995634,0.24,0.14,0.91,0.31,1.13,-0.25,41.81339259136958,1.015991307434673,2.6774620952037433,
40454.3,28.400000000001455,0.21,0.26,0.69,0.15,0.48,-0.26,42.340002361832724,0.880070819830342,2.638309339927718,
40454.4,28.5,-0.12,0.23,0.97,0.26,2.19,-0.14,42.47977989585162,0.6246528513579792,2.6068687357674465,
40454.5,28.599999999998545,-0.01,0.23,0.88,0.28,0.35,-0.12,43.61413073764053,0.5358545852371439,2.5368864337777195,
40454.6,28.69999999999709,-0.15,0.29,0.86,0.14,1.58,-0.15,44.05311566733958,0.4624836587449288,2.4848717750828646,
40454.7,28.799999999995634,-0.39,0.38,0.78,0.45,-0.09,0.16,45.05584312827805,0.35077749559773364,2.340333928894373,
40454.8,28.900000000001455,-0.26,0.36,0.85,0.02,0.42,0.06,43.34883735465116,0.2971926282022642,2.3646388630751742,
40454.9,29.0,-0.28,0.31,0.83,-0.16,-0.26,-0.01,43.55478963328833,0.300930914583855,2.354965060497899,
40455.0,29.099999999998545,-0.29,0.29,0.84,-0.28,-0.07,0.04,42.93844547721773,0.33596760592613095,2.4304186941294805,
40455.1,29.19999999999709,-0.29,0.28,0.85,-0.37,-0.08,-0.02,44.5571284981427,0.35375932270035376,2.377476918643498,
40455.2,29.299999999995634,-0.26,0.21,0.86,-0.33,-0.37,-0.02,42.933546324523434,0.402288200093553,2.375869728916837,
40455.3,29.400000000001455,-0.19,0.24,0.92,-0.11,-0.61,0.01,43.67533171024577,0.46565408878999637,2.416214297475779,
40455.4,29.5,-0.13,0.20,0.91,-0.15,-0.45,0.07,43.86071362848534,0.5144911404735437,2.4339641393221094,
40455.5,29.599999999998545,-0.08,0.19,0.95,-0.06,-0.94,0.07,43.353608846323276,0.5274580909098128,2.473396287069952,
40455.6,29.69999999999709,0.03,0.18,0.91,-0.13,-0.99,0.08,42.83715560118342,0.6477004343982052,2.5114500173508856,
40455.7,29.799999999995634,0.09,0.16,0.87,-0.18,-0.90,0.10,42.54971327752985,0.8248266855267318,2.581572211032453,
40455.8,29.900000000001455,0.21,0.14,0.91,-0.09,-0.79,0.15,43.513940295036484,0.9312391064052863,2.5895427558938007,
40455.9,30.0,0.35,0.20,0.60,-0.44,-1.27,0.17,42.37254417662456,1.010661071639288,2.6310898557032636,
40456.0,30.099999999998545,0.29,0.13,0.88,-0.18,0.15,0.06,42.94330914123876,1.157138834037085,2.627385157994486,
40456.1,30.19999999999709,0.38,0.05,0.88,0.02,-0.31,0.10,42.59368497794009,1.1689478991077973,2.633838049797536,
40456.2,30.299999999995634,0.32,-0.03,0.92,0.39,0.46,0.16,41.899872314841254,1.1133878795202836,2.622481329763815,
40456.3,30.400000000001455,0.34,0.09,0.80,0.66,0.01,-0.08,42.27712738585724,1.1450076892719467,2.656008728075207,
40456.4,30.5,0.24,0.14,0.74,0.48,0.44,-0.09,45.096581910384295,1.0407669936407413,2.7030940011646862,
40456.5,30.599999999998545,0.23,0.24,0.75,0.34,0.19,-0.13,45.33126404590986,0.9140243546081811,2.770765285607662,
40456.6,30.69999999999709,0.20,0.32,0.71,-0.03,0.43,-0.46,45.86502916166085,0.8647153880186107,2.760815700761169,
40456.7,30.799999999995634,0.05,0.30,0.68,-0.70,0.80,0.03,47.19437572423222,0.8193255371953663,2.770971627631118,
40456.8,30.900000000001455,0.13,0.24,0.91,-0.77,0.29,-0.04,47.33704363392374,0.7803802843661618,2.711706618834103,
40456.9,31.0,-0.00,0.20,0.85,-0.65,1.49,-0.42,49.72964608762061,0.8060848671772926,2.6474173687943714,
40457.0,31.099999999998545,-0.08,0.04,0.97,-1.02,0.41,-0.16,50.78059668810519,0.7316383548596742,2.5475111391101515,
40457.1,31.19999999999709,-0.08,-0.03,1.02,-0.97,0.48,-0.18,53.41982216368751,0.7906589653683584,2.493244519751185,
40457.2,31.299999999995634,-0.17,-0.15,0.96,-1.03,0.64,-0.21,53.75043627729919,0.7937139800208026,2.456435003340129,
40457.3,31.400000000001455,-0.22,-0.29,0.99,-0.76,-0.18,-0.11,55.99992589280811,0.7589416915523975,2.3638523831874374,
40457.4,31.5,-0.18,-0.35,0.97,-0.36,-0.27,-0.01,54.65675164149439,0.8408656059898033,2.3758422207826126,
40457.5,31.599999999998545,-0.18,-0.33,0.85,-0.27,-0.06,0.21,53.09724192460471,0.8166990916467999,2.392680210555977,
40457.6,31.69999999999709,-0.16,-0.37,0.88,-0.25,-0.11,0.08,54.87314188198084,0.8164923374774163,2.4165235412570807,
40457.7,31.799999999995634,-0.16,-0.36,0.84,-0.13,-0.02,0.00,53.88258809671265,0.8160227322501752,2.403504876880193,
40457.8,31.900000000001455,-0.17,-0.41,0.86,-0.10,-0.09,0.04,52.88905463326037,0.8032811712766208,2.383078831657702,
40457.9,32.0,-0.12,-0.38,0.91,-0.10,-0.11,-0.00,52.56300409984193,0.8171116651383284,2.3896475159067254,
40458.0,32.099999999998545,-0.11,-0.42,0.96,0.02,-0.27,0.12,54.974325825788895,0.8276473288755658,2.369852488997939,
40458.1,32.19999999999709,-0.02,-0.35,1.12,0.70,-0.51,-0.03,52.705553787053596,0.897439287160599,2.3867600343995474,
40458.2,32.299999999995634,-0.04,-0.31,1.09,1.17,-0.93,0.12,52.95379589793352,0.9234536460287086,2.4093353512626208,
40458.3,32.400000000001455,0.08,-0.16,1.02,1.55,-1.46,0.13,51.18176335375717,0.9117358938577808,2.5133766316476,
40458.4,32.5,0.15,-0.00,0.87,1.49,-1.29,0.13,47.549522605384794,0.9899059788557918,2.579356681806785,
40458.5,32.599999999998545,0.28,0.17,0.68,0.95,-1.01,-0.01,47.11300139027443,1.0751383080418333,2.7003203404066634,
40458.6,32.69999999999709,0.34,0.17,0.56,0.28,-0.68,-0.17,44.56680491127898,1.1468629246273294,2.7527604258104756,
40458.7,32.799999999995634,0.38,0.18,0.59,-0.21,-0.24,0.02,44.52133084264216,1.3482892978830219,2.7849633262802844,
40458.8,32.900000000001455,0.43,0.10,0.65,-0.58,-0.25,0.12,43.85030672640728,1.4073308511925127,2.704620024280192,
40458.9,33.0,0.48,0.00,0.74,-0.41,-0.63,-0.04,44.35243623522839,1.4281940536898707,2.6724284422896716,
40459.0,33.099999999998545,0.52,0.02,0.72,-0.34,0.16,-0.06,43.788725717928806,1.5033190172607074,2.616527377018821,
40459.1,33.19999999999709,0.53,-0.01,0.74,-0.18,0.01,-0.14,41.69276795800442,1.5335844831070957,2.607205467591246,
40459.2,33.299999999995634,0.50,0.07,0.81,0.27,0.69,-0.17,42.5826971902908,1.4810565564403033,2.608319756723732,
40459.3,33.400000000001455,0.36,0.09,0.79,0.33,0.92,-0.12,41.238269847315365,1.3849575491804786,2.6345573851133306,
40459.4,33.5,0.34,0.09,0.84,0.43,0.24,-0.30,42.09070443696565,1.1935563421391517,2.664469360051262,
40459.5,33.599999999998545,0.41,0.17,0.80,0.23,0.05,-0.24,41.87958333126059,1.170615237300514,2.7015577480513997,
40459.6,33.69999999999709,0.27,0.24,0.83,0.22,0.53,-0.10,41.06528704392555,1.1102542978721093,2.6682426874557583,
40459.7,33.799999999995634,0.27,0.25,0.71,0.18,0.86,-0.34,42.7246954348419,0.9086508251186127,2.678252390639652,
40459.8,33.900000000001455,0.03,0.31,1.02,0.48,1.06,-0.34,42.26789088658198,0.7502549725215129,2.661520695148837,
40459.9,34.0,-0.00,0.30,0.86,0.50,0.51,-0.30,42.291715500792826,0.6172168096685657,2.6301481057659557,
40460.0,34.099999999998545,-0.12,0.37,0.87,0.33,0.95,-0.17,42.03727988345583,0.45462293739505316,2.568460430141363,
40460.1,34.19999999999709,-0.15,0.36,0.85,0.12,1.09,-0.13,42.539414664520244,0.37068539616799817,2.5090825054991295,
40460.2,34.299999999995634,-0.30,0.48,0.83,0.24,-0.04,0.07,43.84579911462443,0.23662492343313446,2.4354156107903453,
40460.3,34.400000000001455,-0.21,0.39,0.82,-0.03,0.07,0.07,43.67351943683953,0.25811659331432774,2.4382812506222344,
40460.4,34.5,-0.23,0.40,0.82,-0.23,-0.23,0.05,43.48865139320832,0.20870634685660686,2.4393841357554424,
40460.5,34.599999999998545,-0.20,0.38,0.84,-0.52,-0.37,0.12,42.47096419908547,0.22407961614291902,2.4689557162577165,
40460.6,34.69999999999709,-0.15,0.29,0.96,-0.50,-0.65,0.19,43.74002057612685,0.3363656950770764,2.4622820720956473,
40460.7,34.799999999995634,-0.06,0.28,0.90,-0.33,-1.16,0.18,43.270232261914195,0.43960906072295264,2.457349434399249,
40460.8,34.900000000001455,0.05,0.26,0.90,-0.31,-1.43,0.28,41.73025161678276,0.6012526020861342,2.5750327964952597,
40460.9,35.0,0.22,0.20,0.82,-0.33,-1.31,0.30,41.8918953975587,0.8053884850920993,2.6394262251041694,
40461.0,35.099999999998545,0.32,0.22,0.34,-0.37,-1.30,0.29,42.13520143537942,1.0599734448370737,2.6797063269515813,
40461.1,35.19999999999709,0.38,0.11,0.82,-0.24,-0.30,0.13,41.1368180587658,1.2555258999731467,2.6739446837576906,
40461.2,35.299999999995634,0.46,0.03,0.80,-0.05,0.77,0.05,42.03494022833861,1.2546901150912515,2.641139772026676,
40461.3,35.400000000001455,0.28,0.05,0.88,0.48,0.15,-0.02,42.88314354148959,1.1436802343583674,2.647780730756894,
40461.4,35.5,0.27,0.01,0.70,0.52,0.24,-0.06,44.073408082425395,1.1102542978721093,2.702900134668678,
40461.5,35.599999999998545,0.21,0.17,0.67,0.37,0.76,0.09,43.69394237191238,1.0934328805111126,2.743077110114572,
40461.6,35.69999999999709,0.26,0.20,0.72,0.07,0.25,0.10,43.94096266583153,0.9405965642998745,2.7630421518142247,
40461.7,35.799999999995634,0.20,0.30,0.73,-0.51,0.68,0.16,46.09215334522786,0.8481629849310596,2.7738204254447476,
40461.8,35.900000000001455,0.21,0.24,0.82,-0.80,0.62,-0.01,48.23404917690407,0.7909807990506037,2.7079715239762026,
40461.9,36.0,0.15,0.11,0.89,-0.97,0.99,-0.06,48.436235402846904,0.847717361878644,2.6668639629932924,
40462.0,36.099999999998545,0.03,-0.01,0.92,-1.06,1.04,-0.33,50.025348574497706,0.8196984310370883,2.5955123808895735,
40462.1,36.19999999999709,-0.08,-0.17,1.03,-1.02,0.78,-0.14,52.530837609922045,0.8283726036515233,2.51171021977804,
40462.2,36.299999999995634,-0.10,-0.26,1.08,-0.80,0.23,-0.05,54.575040082440616,0.7970629601267599,2.441555876981764,
40462.3,36.400000000001455,-0.14,-0.31,0.97,-0.53,0.69,-0.03,54.725040886234154,0.7764073966671446,2.438308156716341,
40462.4,36.5,-0.17,-0.34,0.94,-0.30,0.20,0.02,54.39962683695542,0.736186549496003,2.4199785633544098,
40462.5,36.599999999998545,-0.19,-0.36,0.87,-0.20,0.19,-0.05,52.63074956714943,0.7285392050639893,2.4022648475089885,
40462.6,36.69999999999709,-0.28,-0.43,0.90,-0.11,0.23,0.07,53.82396213583686,0.6655444414584286,2.3831163477306587,
40462.7,36.799999999995634,-0.26,-0.36,0.88,0.06,-0.45,0.03,53.9438726826319,0.6946377972473813,2.3539926861602973,
40462.8,36.900000000001455,-0.16,-0.39,1.03,0.36,-0.76,0.06,52.78876963900561,0.7768220443299209,2.362178655040133,
40462.9,37.0,-0.06,-0.35,1.15,0.87,-1.00,0.13,53.703241056755594,0.8200122263104924,2.3819699717827323,
40463.0,37.099999999998545,0.03,-0.24,1.05,1.46,-1.54,-0.00,51.11274694242132,0.8702999568471703,2.4306339587428454,
40463.1,37.19999999999709,0.10,-0.05,0.88,1.56,-1.36,0.04,49.50398367808393,0.9274392479588476,2.545992871743059,
40463.2,37.299999999995634,0.27,0.12,0.70,1.20,-1.34,-0.08,48.84050777786816,1.045147749620677,2.688856383913152,
40463.3,37.400000000001455,0.35,0.20,0.62,0.56,-0.96,-0.05,44.60804411762524,1.0844253569524496,2.7332285758012573,
40463.4,37.5,0.40,0.21,0.56,0.00,-0.59,-0.17,45.090873799472995,1.3207775425409074,2.7930743966327483,
40463.5,37.599999999998545,0.34,0.11,0.57,-0.45,-0.20,0.14,44.615043427077374,1.3115021391988613,2.7806345491417543,
40463.6,37.69999999999709,0.52,0.09,0.72,-0.51,-0.22,0.31,42.990013956731865,1.376869237667072,2.7502577561283665,
40463.7,37.799999999995634,0.60,0.05,0.75,-0.34,0.09,-0.14,42.45356757682445,1.385384214597243,2.673664084880988,
40463.8,37.900000000001455,0.50,0.06,0.79,-0.19,0.39,-0.17,41.10807463260715,1.382052693243192,2.666214523653654,
40463.9,38.0,0.42,0.08,0.79,0.35,0.43,-0.19,40.30768909277732,1.3103394477970833,2.686771855650951,
40464.0,38.099999999998545,0.34,0.08,0.82,0.51,0.93,-0.28,41.11655749208583,1.286521426378595,2.702720369940046,
40464.1,38.19999999999709,0.31,0.16,0.94,0.37,1.39,-0.42,41.69697111301971,1.0505957313926375,2.7046767950579724,
40464.2,38.299999999995634,0.19,0.24,0.84,0.18,1.78,-0.29,43.04015450715761,0.8676010158303238,2.690238723846252,
40464.3,38.400000000001455,0.03,0.33,0.87,0.36,0.75,-0.24,43.37277948206686,0.6202494859828216,2.6319065723213235,
40464.4,38.5,-0.04,0.29,0.82,0.24,1.07,-0.23,42.763858572397325,0.43992942983449385,2.531131057955313,
40464.5,38.599999999998545,-0.13,0.21,1.90,0.30,1.69,-0.27,43.07898211425149,0.3001284492976313,2.475480891596959,
40464.6,38.69999999999709,-0.12,0.30,0.88,0.04,-0.54,-0.07,43.080864661703345,0.2781037630283822,2.4326300688622498,
40464.7,38.799999999995634,-0.27,0.31,0.81,-0.15,0.04,0.08,43.49667688456211,0.30120550036324195,2.45099192006148,
40464.8,38.900000000001455,-0.19,0.32,0.86,-0.33,-0.32,0.07,43.12382867974503,0.33182247130540593,2.4076104959874027,
40464.9,39.0,-0.13,0.26,0.89,-0.44,-0.56,0.12,42.909272890600235,0.4182243295792291,2.4525595709825923,
40465.0,39.099999999998545,-0.06,0.24,0.88,-0.20,-1.01,0.17,43.95466186879385,0.47401609685366103,2.4998480811242523,
40465.1,39.19999999999709,0.07,0.23,0.91,-0.26,-1.02,0.20,42.94696380420856,0.5699419812254326,2.545494199438135,
40465.2,39.299999999995634,0.13,0.22,0.89,-0.28,-1.64,0.24,42.64268870509926,0.731734714617815,2.599089033120661,
40465.3,39.400000000001455,0.34,0.20,0.24,-0.26,-1.86,0.33,42.29454456546376,0.9044694749944119,2.637810576669369,
40465.4,39.5,0.37,0.14,0.84,-0.22,-0.35,0.01,41.63034950609951,1.1893377503892808,2.6540572069777038,
40465.5,39.599999999998545,0.46,0.04,0.83,0.07,0.15,-0.01,42.38000589900855,1.1335542365460132,2.6595094600526585,
40465.6,39.69999999999709,0.36,-0.03,0.88,0.81,-0.06,0.14,42.314844912867166,1.1144037295585878,2.6893009758439024,
40465.7,39.799999999995634,0.40,0.11,0.74,0.93,-0.54,0.11,42.91552166757384,1.2089728967097348,2.7569627217023642,
40465.8,39.900000000001455,0.35,0.18,0.59,0.66,0.44,0.23,43.71874883845602,1.1529334320964681,2.881649537710725,
40465.9,40.0,0.30,0.29,0.54,-0.20,0.17,0.17,44.67743278211047,0.9561708744039694,2.8506644868335433,
40466.0,40.099999999998545,0.32,0.27,0.69,-0.82,0.30,0.10,46.320628234081624,0.8506580582784108,2.8421932688384137,
40466.1,40.19999999999709,0.27,0.22,0.84,-0.93,1.33,-0.14,47.09541909782734,0.8890687730300384,2.80290505253739,
40466.2,40.299999999995634,0.16,0.11,0.91,-0.97,0.74,-0.08,48.90336082520301,0.8552191239587447,2.682054459767574,
40466.3,40.400000000001455,0.15,-0.03,0.98,-1.00,0.82,-0.06,50.722692160412784,0.9133376143903532,2.604849664043682,
40466.4,40.5,0.03,-0.18,1.01,-0.93,0.70,0.02,51.857906822393055,0.8562908338753835,2.5446671547529034,
40466.5,40.599999999998545,0.02,-0.27,1.04,-0.66,0.41,-0.07,52.07247737528915,0.9243994731998194,2.502007169410857,
40466.6,40.69999999999709,-0.02,-0.30,0.97,-0.53,0.50,-0.02,54.10653472548395,0.8128064417793853,2.497007192119799,
40466.7,40.799999999995634,-0.05,-0.35,0.89,-0.34,-0.03,-0.05,51.7517506950248,0.8126052711606736,2.4563623557888956,
40466.8,40.900000000001455,-0.10,-0.38,0.89,-0.18,0.59,-0.05,52.23439767050061,0.7529676262351499,2.475534649323747,
40466.9,41.0,-0.17,-0.41,0.89,0.02,0.07,0.04,54.38928295169922,0.6910479991174278,2.399012033445364,
40467.0,41.099999999998545,-0.12,-0.35,0.86,-0.13,-0.08,0.03,54.21871448125638,0.738097365228334,2.4218181260227407,
40467.1,41.19999999999709,-0.06,-0.38,1.01,-0.04,-0.56,0.07,52.766221202583765,0.721773351325512,2.404232945812839,
40467.2,41.299999999995634,0.04,-0.44,1.22,0.86,-0.62,-0.18,52.45958539676043,0.8371745066661,2.387014912615346,
40467.3,41.400000000001455,0.00,-0.35,1.19,1.49,-1.21,0.08,51.98215078274465,0.8682530264506477,2.4585419793800405,
40467.4,41.5,0.09,-0.18,0.97,1.62,-1.65,0.23,48.829648780223685,0.9030441006068183,2.5765557545596796,
40467.5,41.599999999998545,0.20,-0.01,0.71,1.37,-1.10,0.13,46.65002250803316,0.9329443522030109,2.660279061124084,
40467.6,41.69999999999709,0.29,0.14,0.59,0.83,-1.04,-0.10,45.28969639995393,1.131831919570268,2.743036847537767,
40467.7,41.799999999995634,0.41,0.19,0.56,0.18,-0.39,-0.23,44.15561345967237,1.2105944401248876,2.8212996054451014,
40467.8,41.900000000001455,0.48,0.14,0.56,-0.61,-0.30,-0.15,42.878719663721306,1.3249769038190546,2.7985210503955935,
40467.9,42.0,0.49,0.10,0.69,-0.67,-0.10,0.07,43.381528327157866,1.371197642067114,2.7187079116773223,
40468.0,42.099999999998545,0.53,0.04,0.71,-0.53,-0.75,0.02,42.765572602269685,1.4694406010743961,2.699826983459453,
40468.1,42.19999999999709,0.55,0.02,0.71,-0.36,0.46,-0.15,40.32193447740324,1.5563195719210732,2.641291332256463,
40468.2,42.299999999995634,0.55,-0.08,0.89,0.39,0.69,-0.22,42.5090813826881,1.4895908261317385,2.6126575712664044,
40468.3,42.400000000001455,0.37,0.08,0.77,0.44,0.91,-0.32,40.972271111081945,1.488564598975821,2.6291818267128746,
40468.4,42.5,0.48,0.25,0.94,0.41,0.82,-0.68,40.755697761171994,1.2799895511843662,2.6928154828170965,
40468.5,42.599999999998545,0.31,0.26,0.96,0.36,1.95,-0.53,41.961099842592304,0.9006362413822986,2.6600836218876713,
40468.6,42.69999999999709,-0.04,0.27,0.84,0.49,0.75,-0.27,43.17217043420449,0.6174169295634364,2.6025329425206327,
40468.7,42.799999999995634,0.03,0.30,0.86,0.30,1.29,-0.25,42.29997044916226,0.4445140199961938,2.5758833723065404,
40468.8,42.900000000001455,-0.28,0.30,0.59,0.43,1.40,-0.09,43.31594163815443,0.35153478477925426,2.444109971629914,
40468.9,43.0,-0.17,0.38,0.86,0.09,-0.15,-0.01,44.83489712266551,0.3243683494639597,2.4384265114223145,
40469.0,43.099999999998545,-0.21,0.37,0.82,-0.19,-0.20,0.07,42.907580915264845,0.2782503396127663,2.435194467473619,
40469.1,43.19999999999709,-0.21,0.33,0.85,-0.26,-0.29,0.09,43.100964026341686,0.3291561640744232,2.4288872143082063,
40469.2,43.299999999995634,-0.11,0.31,0.88,-0.27,-0.42,0.05,43.29098982467368,0.3729423298405212,2.475230963435052,
40469.3,43.400000000001455,-0.12,0.28,0.88,-0.29,-0.77,0.12,42.887178736774004,0.41532836115178084,2.481572192330005,
40469.4,43.5,-0.00,0.27,0.92,-0.14,-1.46,0.24,43.37667345474984,0.45522353104297264,2.5729242259303406,
40469.5,43.599999999998545,0.19,0.25,0.83,-0.26,-1.44,0.24,42.91128755933572,0.7240568253610946,2.633477100503213,
40469.6,43.69999999999709,0.27,0.21,0.92,-0.20,-0.82,0.38,42.43815618049399,0.841197433436021,2.696859186070875,
40469.7,43.799999999995634,0.44,0.23,0.86,-0.46,-1.54,0.25,40.72647419062936,1.0678067958173558,2.684752051844366,
40469.8,43.900000000001455,0.45,0.13,0.84,-0.41,0.24,0.15,40.821074214185,1.2870022175865687,2.6917493610581325,
40469.9,44.0,0.39,0.01,0.82,0.04,0.60,-0.09,41.97542257083304,1.2485792819951465,2.6358142783984437,
40470.0,44.099999999998545,0.27,0.02,0.76,0.60,0.00,0.05,43.46772250762628,1.1269201524092494,2.6064158852142607,
40470.1,44.19999999999709,0.33,0.03,0.71,0.66,-0.02,0.14,43.214492939290636,1.1695977055369682,2.699511909574843,
40470.2,44.299999999995634,0.31,0.13,0.60,0.44,0.04,0.18,43.30185792780721,1.0641611837250609,2.7958889472263593,
40470.3,44.400000000001455,0.28,0.23,0.66,-0.01,0.85,-0.08,45.280125883217245,1.0465804421544123,2.805719297489698,
40470.4,44.5,0.25,0.34,0.71,-0.56,0.86,0.04,45.985691252823415,0.8737635368833764,2.7949244016416928,
40470.5,44.599999999998545,0.26,0.24,0.83,-0.82,0.63,-0.10,48.874176207891225,0.9102182741897394,2.745493632727931,
40470.6,44.69999999999709,0.16,0.16,0.92,-0.89,0.92,-0.34,48.72560825684991,0.9040129582491343,2.655435064299068,
40470.7,44.799999999995634,0.09,0.00,0.98,-0.94,0.96,-0.11,49.18799650321204,0.8520049939430309,2.624205484909205,
40470.8,44.900000000001455,0.02,-0.14,0.99,-1.07,0.98,-0.02,51.08109043471958,0.8663941706967947,2.5374776718982255,
40470.9,45.0,-0.05,-0.24,1.08,-0.66,0.65,-0.23,51.9969749120081,0.8144412883430091,2.4988105232846296,
40471.0,45.099999999998545,-0.17,-0.24,0.94,-0.32,0.65,-0.12,52.95872827022945,0.7823174584177288,2.4338586444388475,
40471.1,45.19999999999709,-0.16,-0.31,0.94,-0.35,0.05,-0.12,53.71710062912927,0.6879894595418657,2.39640620704111,
40471.2,45.299999999995634,-0.20,-0.38,0.93,-0.14,0.50,-0.05,54.073999297259306,0.7087779711556328,2.4192639200431016,
40471.3,45.400000000001455,-0.22,-0.36,0.99,-0.12,-0.30,0.05,53.87194724529642,0.6858427526391556,2.3773361457300504,
40471.4,45.5,-0.08,-0.32,1.21,0.45,-1.08,0.23,52.785704504155284,0.7436691423291413,2.3525806736310626,
40471.5,45.599999999998545,-0.08,-0.25,1.15,1.18,-0.97,0.24,52.87143936001743,0.8171077426225839,2.423342662179143,
40471.6,45.69999999999709,0.07,-0.08,1.00,1.33,-1.80,0.24,50.29217235316049,0.820721634373167,2.4966434826355735,
40471.7,45.799999999995634,0.14,0.01,0.79,1.16,-1.13,0.05,49.12110238990978,0.9025752069772857,2.626603486146835,
40471.8,45.900000000001455,0.21,0.10,0.65,0.86,-1.21,-0.04,46.64621099296276,1.019909073874639,2.687057601394003,
40471.9,46.0,0.34,0.20,0.60,0.34,-0.87,-0.27,45.196086113733344,1.1250903981908777,2.7867230764733284,
40472.0,46.099999999998545,0.34,0.16,0.62,-0.06,-0.23,-0.03,45.08852292989869,1.38321031058682,2.774222725011701,
40472.1,46.19999999999709,0.41,0.09,0.68,-0.35,-0.68,0.25,45.842439943790076,1.3324718520529901,2.792666983301002,
40472.2,46.299999999995634,0.62,0.11,0.65,-0.27,-0.29,0.44,43.11980287524515,1.4867778593987433,2.7353282334122717,
40472.3,46.400000000001455,0.54,0.06,0.70,-0.27,0.87,-0.13,41.981803200910754,1.4936181700303846,2.724927819689394,
40472.4,46.5,0.44,0.06,0.75,-0.18,0.60,-0.24,43.42170079580025,1.360613740132727,2.6842911194338406,
40472.5,46.599999999998545,0.35,0.03,0.82,-0.07,0.67,-0.15,44.31343362909266,1.2236582414199912,2.6497163804041426,
40472.6,46.69999999999709,0.34,0.13,0.84,0.32,-0.06,-0.21,42.9510488812555,1.1467977285616253,2.669858350875968,
40472.7,46.799999999995634,0.35,0.25,0.73,0.46,1.70,-0.13,42.98589885066963,1.089073662630064,2.733155881636398,
40472.8,46.900000000001455,0.19,0.32,0.60,0.40,1.65,-0.25,43.14149394724295,0.887102690615896,2.703100407168316,
40472.9,47.0,-0.05,0.38,0.90,0.59,1.55,-0.23,43.31092818215745,0.562357623052628,2.6012263559830027,
40473.0,47.099999999998545,-0.05,0.36,0.86,0.52,1.04,-0.27,43.485962102729204,0.35586480954721583,2.5411646184257597,
40473.1,47.19999999999709,-0.22,0.38,0.81,0.30,1.41,-0.28,43.63015585578397,0.2686153456025471,2.471656824371329,
40473.2,47.299999999995634,-0.22,0.38,0.79,0.27,-0.08,-0.13,43.23640364322639,0.15944754864038005,2.393440491821451,
40473.3,47.400000000001455,-0.29,0.42,0.77,-0.23,-0.10,0.07,43.36991122886926,0.15775366873124336,2.384405752025928,
40473.4,47.5,-0.27,0.39,0.79,-0.43,-0.18,0.08,43.15580146399786,0.1942730094989331,2.3682030122209534,
40473.5,47.599999999998545,-0.24,0.34,0.84,-0.58,-0.09,0.16,42.83787342994514,0.24556744260294486,2.403171906550331,
40473.6,47.69999999999709,-0.21,0.28,0.88,-0.60,-0.47,0.11,41.552764047653916,0.3167855760112604,2.4013995954112435,
40473.7,47.799999999995634,-0.14,0.25,0.89,-0.36,-0.67,0.12,43.391037092929686,0.3684656023361024,2.395362032244284,
40473.8,47.900000000001455,-0.07,0.22,0.89,-0.30,-0.98,0.19,44.115260398188745,0.4704888171384518,2.4886227891406874,
40473.9,48.0,0.05,0.20,0.81,-0.36,-0.94,0.26,43.02652902570692,0.6207796319642888,2.5464949931102683,
40474.0,48.099999999998545,0.08,0.11,0.92,-0.41,-0.31,0.23,43.09966241167093,0.7248388204644423,2.565360631235345,
40474.1,48.19999999999709,0.22,0.09,0.98,-0.07,-1.05,0.22,43.373976068605934,0.8033640121001966,2.587312309673621,
40474.2,48.299999999995634,0.18,0.06,0.88,-0.30,0.14,-0.12,43.133885751228114,0.9443462737146192,2.608107508493394,
40474.3,48.400000000001455,0.35,0.04,0.91,-0.18,-0.77,-0.13,42.860913429370584,1.0354552685531222,2.594726172933914,
40474.4,48.5,0.26,-0.04,0.86,0.23,0.34,0.04,42.50927663463588,1.114219307035238,2.5938380529479788,
40474.5,48.599999999998545,0.30,0.13,0.86,0.72,0.30,0.30,44.069179706456985,1.0657127205708419,2.6518972084067993,
40474.6,48.69999999999709,0.16,0.14,0.72,0.44,-0.16,0.68,44.67779537980808,0.9663718419500694,2.6834287038815554,
40474.7,48.799999999995634,0.26,0.16,0.78,0.38,0.67,0.26,45.32035855992315,0.8997802460691476,2.732465679110838,
40474.8,48.900000000001455,0.26,0.26,0.76,0.32,0.49,0.16,45.54762452642289,0.7547519598842438,2.7297966602991446,
40474.9,49.0,0.19,0.29,0.76,-0.12,0.54,0.26,46.36368729943726,0.5850651382238792,2.6996913388511024,
40475.0,49.099999999998545,0.18,0.22,0.89,-0.48,0.23,0.26,47.243591099746006,0.5009248964492691,2.675303752930833,
40475.1,49.19999999999709,0.15,0.16,0.96,-0.42,0.18,0.11,47.99340162980741,0.5017655629278237,2.6473523774432453,
40475.2,49.299999999995634,0.29,0.09,1.00,-0.29,-0.24,0.31,46.688728832556585,0.5848826835570387,2.645483693134101,
40475.3,49.400000000001455,0.22,0.04,0.97,-0.08,0.33,0.18,47.98529983234449,0.63224011041871,2.6854878186286193,
40475.4,49.5,0.09,0.03,0.98,0.01,0.74,-0.11,48.668483641880606,0.6193730620179132,2.6288571271639785,
40475.5,49.599999999998545,0.05,0.04,0.90,-0.06,0.41,-0.05,48.707926459663625,0.5048248176094108,2.597723276353009,
40475.6,49.69999999999709,0.03,0.07,0.93,-0.10,0.11,0.27,49.95217412685858,0.4912185584400936,2.5913838225781003,
40475.7,49.799999999995634,0.08,0.05,0.94,-0.04,-0.11,0.14,49.1678024727565,0.49970080841658604,2.5591096953229395,
40475.8,49.900000000001455,0.05,0.02,0.94,0.01,-0.08,0.09,50.78749649273924,0.5205938995230259,2.5913069452378035,
40475.9,50.0,0.04,0.03,0.91,0.03,0.08,0.07,48.07035364962484,0.4157235408896801,2.5805028008664497,
40476.0,50.099999999998545,0.02,0.03,0.85,-0.23,0.08,-0.14,49.129171578604904,0.519942777464271,2.572653537886616,
