Relative Time (to start of segment),aclx 1,aclx 2,aclx 3,aclx 4,aclx 5,acly 1,acly 2,acly 3,acly 4,acly 5,aclz 1,aclz 2,aclz 3,aclz 4,aclz 5,gyrx 1,gyrx 2,gyrx 3,gyrx 4,gyrx 5,gyry 1,gyry 2,gyry 3,gyry 4,gyry 5,gyrz 1,gyrz 2,gyrz 3,gyrz 4,gyrz 5,magr 1,magr 2,magr 3,magr 4,magr 5,magphi 1,magphi 2,magphi 3,magphi 4,magphi 5,magtheta 1,magtheta 2,magtheta 3,magtheta 4,magtheta 5,
0.000000,0.006738,,,,,-0.041280,,,,,-0.045061,,,,,0.012656,,,,,-0.015720,,,,,0.014248,,,,,0.000000,,,,,-0.033337,,,,,0.033955,,,,,
0.100000,0.000772,,,,,-0.031930,,,,,-0.034682,,,,,0.014773,,,,,-0.027001,,,,,0.021471,,,,,0.000000,,,,,-0.016701,,,,,0.018123,,,,,
0.200000,0.005577,,,,,-0.019799,,,,,-0.022523,,,,,0.015674,,,,,-0.034337,,,,,0.025136,,,,,0.000000,,,,,-0.008051,,,,,0.007192,,,,,
0.300000,0.013962,,,,,-0.008696,,,,,-0.011674,,,,,0.015042,,,,,-0.037427,,,,,0.025625,,,,,0.000000,,,,,0.000328,,,,,-0.004512,,,,,
0.400000,0.019930,,,,,0.002199,,,,,-0.000615,,,,,0.015253,,,,,-0.037051,,,,,0.025197,,,,,0.000000,,,,,0.008688,,,,,-0.015077,,,,,
0.500000,0.026091,,,,,0.013132,,,,,0.010211,,,,,0.010901,,,,,-0.029136,,,,,0.018836,,,,,0.000000,,,,,0.017054,,,,,-0.026714,,,,,
0.700000,0.031460,,,,,0.024019,,,,,0.021189,,,,,-0.001941,,,,,-0.021072,,,,,0.006419,,,,,0.000000,,,,,0.025419,,,,,-0.037647,,,,,
0.800000,0.036833,,,,,0.034977,,,,,0.032196,,,,,-0.002573,,,,,-0.023257,,,,,0.006663,,,,,0.000000,,,,,0.033794,,,,,-0.049122,,,,,
0.900000,0.056060,,,,,0.043699,,,,,0.039448,,,,,-0.003345,,,,,-0.025519,,,,,0.006847,,,,,0.000000,,,,,0.055074,,,,,-0.061581,,,,,
1.000000,0.064015,,,,,0.054677,,,,,0.050326,,,,,-0.004117,,,,,-0.029664,,,,,0.007764,,,,,0.000000,,,,,0.063464,,,,,-0.074095,,,,,
1.100000,0.070620,,,,,0.066622,,,,,0.062757,,,,,-0.005620,,,,,-0.034463,,,,,0.008126,,,,,0.000000,,,,,0.071791,,,,,-0.085219,,,,,
1.200000,0.088619,,,,,0.077153,,,,,0.072020,,,,,-0.010854,,,,,-0.023408,,,,,0.000118,,,,,0.000000,,,,,0.071684,,,,,-0.089474,,,,,
1.300000,0.086365,,,,,0.076820,,,,,0.072089,,,,,-0.011205,,,,,-0.018207,,,,,-0.000677,,,,,0.000000,,,,,0.071942,,,,,-0.089450,,,,,
1.400000,0.084491,,,,,0.076784,,,,,0.072056,,,,,-0.020679,,,,,-0.008258,,,,,-0.007711,,,,,0.000000,,,,,0.071925,,,,,-0.088593,,,,,
1.500000,0.079868,,,,,0.075037,,,,,0.071348,,,,,-0.032118,,,,,0.001088,,,,,-0.016397,,,,,0.000000,,,,,0.072868,,,,,-0.086072,,,,,
1.700000,0.081350,,,,,0.075024,,,,,0.070900,,,,,-0.034083,,,,,0.001540,,,,,-0.015663,,,,,0.000000,,,,,0.072895,,,,,-0.086501,,,,,
1.800000,0.076099,,,,,0.071299,,,,,0.068250,,,,,-0.036189,,,,,0.006816,,,,,-0.016091,,,,,0.000000,,,,,0.051924,,,,,-0.077257,,,,,
1.900000,0.077695,,,,,0.071119,,,,,0.067893,,,,,-0.038575,,,,,0.013072,,,,,-0.016458,,,,,0.000000,,,,,0.051986,,,,,-0.078104,,,,,
2.000000,0.070409,,,,,0.066245,,,,,0.062745,,,,,-0.041171,,,,,0.020082,,,,,-0.016886,,,,,0.000000,,,,,0.044361,,,,,-0.058735,,,,,
2.100000,0.071185,,,,,0.057446,,,,,0.052878,,,,,-0.043832,,,,,0.032003,,,,,-0.017218,,,,,0.000000,,,,,0.031431,,,,,-0.035029,,,,,
2.200000,0.062442,,,,,0.044587,,,,,0.039688,,,,,-0.047628,,,,,0.048573,,,,,-0.023676,,,,,0.000000,,,,,0.019587,,,,,-0.020410,,,,,
2.300000,0.053551,,,,,0.033638,,,,,0.029502,,,,,-0.048330,,,,,0.053774,,,,,-0.027468,,,,,0.000000,,,,,0.011196,,,,,-0.009263,,,,,
2.400000,0.046756,,,,,0.022857,,,,,0.019170,,,,,-0.049382,,,,,0.057844,,,,,-0.030710,,,,,0.000000,,,,,0.002707,,,,,0.000883,,,,,
2.500000,0.037655,,,,,0.011656,,,,,0.008734,,,,,-0.041312,,,,,0.055206,,,,,-0.026918,,,,,0.000000,,,,,-0.005508,,,,,0.011754,,,,,
2.700000,0.033490,,,,,0.002442,,,,,-0.001559,,,,,-0.029802,,,,,0.042016,,,,,-0.017620,,,,,0.000000,,,,,-0.014747,,,,,0.018470,,,,,
2.800000,0.024392,,,,,-0.008766,,,,,-0.012062,,,,,-0.028188,,,,,0.038473,,,,,-0.017131,,,,,0.000000,,,,,-0.022948,,,,,0.029494,,,,,
2.900000,0.025303,,,,,-0.016079,,,,,-0.020685,,,,,-0.025592,,,,,0.034930,,,,,-0.016519,,,,,0.000000,,,,,-0.010261,,,,,0.030988,,,,,
3.000000,0.016946,,,,,-0.027140,,,,,-0.031311,,,,,-0.024609,,,,,0.034403,,,,,-0.019027,,,,,0.000000,,,,,-0.018506,,,,,0.042617,,,,,
3.100000,0.007681,,,,,-0.034055,,,,,-0.037672,,,,,-0.024211,,,,,0.030345,,,,,-0.021479,,,,,0.000000,,,,,-0.019298,,,,,0.035821,,,,,
0.000000,,0.021960,,,,,-0.043789,,,,,-0.051338,,,,,-0.003175,,,,,0.001258,,,,,-0.003705,,,,,0.000000,,,,,-0.020326,,,,,0.027305,,,,
0.100000,,-0.000766,,,,,-0.041013,,,,,-0.044498,,,,,0.016095,,,,,-0.019639,,,,,0.013942,,,,,0.000000,,,,,-0.033081,,,,,0.029482,,,,
0.200000,,-0.020536,,,,,-0.035392,,,,,-0.035606,,,,,0.036447,,,,,-0.036674,,,,,0.032537,,,,,0.000000,,,,,-0.024090,,,,,0.023659,,,,
0.300000,,-0.041512,,,,,-0.032167,,,,,-0.028773,,,,,0.055886,,,,,-0.056497,,,,,0.050215,,,,,0.000000,,,,,-0.036815,,,,,0.026278,,,,
0.400000,,-0.053978,,,,,-0.025197,,,,,-0.019290,,,,,0.076027,,,,,-0.073079,,,,,0.068382,,,,,0.000000,,,,,-0.028356,,,,,0.016736,,,,
0.600000,,-0.072035,,,,,-0.021297,,,,,-0.012306,,,,,0.096099,,,,,-0.089661,,,,,0.086365,,,,,0.000000,,,,,-0.041202,,,,,0.016932,,,,
0.700000,,-0.087726,,,,,-0.014940,,,,,-0.001841,,,,,0.116029,,,,,-0.106243,,,,,0.103798,,,,,0.000000,,,,,-0.032797,,,,,0.006303,,,,
0.800000,,-0.095782,,,,,-0.007138,,,,,0.007930,,,,,0.135820,,,,,-0.122373,,,,,0.120497,,,,,0.000000,,,,,-0.024402,,,,,-0.004575,,,,
0.900000,,-0.111720,,,,,-0.003103,,,,,0.014139,,,,,0.136943,,,,,-0.121091,,,,,0.119641,,,,,0.000000,,,,,-0.037154,,,,,-0.000022,,,,
1.000000,,-0.128880,,,,,0.005057,,,,,0.028001,,,,,0.161318,,,,,-0.145977,,,,,0.142135,,,,,0.000000,,,,,-0.020302,,,,,-0.017953,,,,
1.100000,,-0.136699,,,,,0.020647,,,,,0.047266,,,,,0.176804,,,,,-0.162019,,,,,0.154751,,,,,0.000000,,,,,-0.011876,,,,,-0.032394,,,,
1.200000,,-0.108119,,,,,0.029064,,,,,0.052026,,,,,0.158347,,,,,-0.143402,,,,,0.136523,,,,,0.000000,,,,,0.009243,,,,,-0.047041,,,,
1.300000,,-0.082933,,,,,0.034683,,,,,0.054743,,,,,0.138838,,,,,-0.127046,,,,,0.117255,,,,,0.000000,,,,,0.008625,,,,,-0.052538,,,,
1.400000,,-0.057192,,,,,0.042647,,,,,0.059618,,,,,0.120451,,,,,-0.107147,,,,,0.098782,,,,,0.000000,,,,,0.029781,,,,,-0.065789,,,,
1.600000,,-0.039636,,,,,0.047019,,,,,0.062088,,,,,0.100520,,,,,-0.090339,,,,,0.080126,,,,,0.000000,,,,,0.029649,,,,,-0.066906,,,,
1.700000,,-0.015217,,,,,0.054510,,,,,0.066540,,,,,0.081782,,,,,-0.072551,,,,,0.061409,,,,,0.000000,,,,,0.050856,,,,,-0.079050,,,,
1.800000,,0.005987,,,,,0.059295,,,,,0.067586,,,,,0.063325,,,,,-0.054160,,,,,0.043303,,,,,0.000000,,,,,0.050963,,,,,-0.080116,,,,
1.900000,,0.020911,,,,,0.063008,,,,,0.069376,,,,,0.033359,,,,,-0.032604,,,,,0.022812,,,,,0.000000,,,,,0.050871,,,,,-0.080479,,,,
2.000000,,0.038894,,,,,0.068167,,,,,0.075193,,,,,0.005895,,,,,-0.013252,,,,,0.005323,,,,,0.000000,,,,,0.073562,,,,,-0.091980,,,,
2.100000,,0.063047,,,,,0.071435,,,,,0.076276,,,,,-0.043628,,,,,0.036363,,,,,-0.041537,,,,,0.000000,,,,,0.052228,,,,,-0.086603,,,,
2.200000,,0.049101,,,,,0.065718,,,,,0.074832,,,,,-0.055909,,,,,0.050985,,,,,-0.053220,,,,,0.000000,,,,,0.030897,,,,,-0.080994,,,,
2.300000,,0.034379,,,,,0.059742,,,,,0.073203,,,,,-0.067980,,,,,0.065607,,,,,-0.065087,,,,,0.000000,,,,,0.009653,,,,,-0.073482,,,,
2.400000,,0.027032,,,,,0.051351,,,,,0.067169,,,,,-0.080050,,,,,0.079250,,,,,-0.076892,,,,,0.000000,,,,,0.001312,,,,,-0.059668,,,,
2.600000,,0.012903,,,,,0.044928,,,,,0.065607,,,,,-0.092262,,,,,0.092440,,,,,-0.088698,,,,,0.000000,,,,,-0.019845,,,,,-0.052050,,,,
2.700000,,0.010171,,,,,0.036172,,,,,0.058024,,,,,-0.103631,,,,,0.105479,,,,,-0.100809,,,,,0.000000,,,,,-0.027981,,,,,-0.044261,,,,
2.800000,,0.005371,,,,,0.027351,,,,,0.051083,,,,,-0.116052,,,,,0.117388,,,,,-0.112553,,,,,0.000000,,,,,-0.036212,,,,,-0.034442,,,,
2.900000,,-0.009674,,,,,0.020650,,,,,0.049221,,,,,-0.128544,,,,,0.128543,,,,,-0.124175,,,,,0.000000,,,,,-0.057384,,,,,-0.026259,,,,
3.000000,,-0.039179,,,,,0.009223,,,,,0.046500,,,,,-0.109578,,,,,0.109317,,,,,-0.109118,,,,,0.000000,,,,,-0.084964,,,,,-0.015514,,,,
3.100000,,-0.048862,,,,,-0.005380,,,,,0.032421,,,,,-0.095139,,,,,0.095530,,,,,-0.100136,,,,,0.000000,,,,,-0.109243,,,,,-0.000129,,,,
3.200000,,-0.042511,,,,,-0.010916,,,,,0.022165,,,,,-0.084472,,,,,0.080757,,,,,-0.087474,,,,,0.000000,,,,,-0.096306,,,,,0.006618,,,,
3.300000,,-0.034237,,,,,-0.016447,,,,,0.011972,,,,,-0.072331,,,,,0.069300,,,,,-0.075730,,,,,0.000000,,,,,-0.083328,,,,,0.012172,,,,
3.400000,,-0.027407,,,,,-0.021470,,,,,0.002417,,,,,-0.062085,,,,,0.052191,,,,,-0.061967,,,,,0.000000,,,,,-0.070583,,,,,0.017854,,,,
3.600000,,-0.027528,,,,,-0.024289,,,,,-0.002597,,,,,-0.052189,,,,,0.034403,,,,,-0.048327,,,,,0.000000,,,,,-0.070670,,,,,0.016967,,,,
3.700000,,-0.018718,,,,,-0.029107,,,,,-0.012326,,,,,-0.042224,,,,,0.016389,,,,,-0.034747,,,,,0.000000,,,,,-0.057875,,,,,0.021449,,,,
3.800000,,-0.021739,,,,,-0.031651,,,,,-0.016500,,,,,-0.032188,,,,,-0.001550,,,,,-0.021168,,,,,0.000000,,,,,-0.058064,,,,,0.024589,,,,
3.900000,,-0.024023,,,,,-0.034202,,,,,-0.020500,,,,,-0.021241,,,,,-0.014363,,,,,-0.008629,,,,,0.000000,,,,,-0.058170,,,,,0.027970,,,,
4.000000,,-0.011565,,,,,-0.039079,,,,,-0.031079,,,,,-0.009930,,,,,-0.025204,,,,,0.003528,,,,,0.000000,,,,,-0.043342,,,,,0.032029,,,,
0.000000,,,0.017815,,,,,-0.043854,,,,,-0.046799,,,,,-0.006222,,,,,-0.006675,,,,,0.000241,,,,,0.000000,,,,,-0.020145,,,,,0.035744,,,
0.100000,,,0.010483,,,,,-0.042976,,,,,-0.045090,,,,,-0.005170,,,,,-0.002379,,,,,-0.000555,,,,,0.000000,,,,,-0.019664,,,,,0.042195,,,
0.200000,,,0.010835,,,,,-0.042967,,,,,-0.045267,,,,,0.030084,,,,,-0.034946,,,,,0.032797,,,,,0.000000,,,,,-0.019815,,,,,0.041224,,,
0.300000,,,0.004725,,,,,-0.033856,,,,,-0.037110,,,,,0.043394,,,,,-0.050392,,,,,0.044098,,,,,0.000000,,,,,-0.010903,,,,,0.035719,,,
0.400000,,,0.001285,,,,,-0.024387,,,,,-0.028522,,,,,0.046622,,,,,-0.053783,,,,,0.047524,,,,,0.000000,,,,,-0.001773,,,,,0.031965,,,
0.500000,,,-0.003724,,,,,-0.014889,,,,,-0.019823,,,,,0.048026,,,,,-0.057627,,,,,0.049603,,,,,0.000000,,,,,0.006475,,,,,0.021198,,,
0.600000,,,-0.004935,,,,,-0.005314,,,,,-0.010361,,,,,0.048307,,,,,-0.059436,,,,,0.050093,,,,,0.000000,,,,,0.015665,,,,,0.016519,,,
0.800000,,,-0.004855,,,,,0.004580,,,,,-0.000304,,,,,0.063325,,,,,-0.072476,,,,,0.061470,,,,,0.000000,,,,,0.024779,,,,,0.010364,,,
0.900000,,,-0.007730,,,,,0.014317,,,,,0.008475,,,,,0.078063,,,,,-0.085365,,,,,0.072664,,,,,0.000000,,,,,0.032973,,,,,-0.000521,,,
1.000000,,,-0.010349,,,,,0.023763,,,,,0.017570,,,,,0.088660,,,,,-0.097876,,,,,0.081349,,,,,0.000000,,,,,0.041280,,,,,-0.011572,,,
1.100000,,,-0.015585,,,,,0.032673,,,,,0.025817,,,,,0.088870,,,,,-0.097424,,,,,0.080799,,,,,0.000000,,,,,0.050265,,,,,-0.017783,,,
1.200000,,,0.001757,,,,,0.047170,,,,,0.038028,,,,,0.082256,,,,,-0.089391,,,,,0.073056,,,,,0.000000,,,,,0.059040,,,,,-0.038612,,,
1.300000,,,0.009923,,,,,0.067011,,,,,0.057627,,,,,0.051605,,,,,-0.062150,,,,,0.042385,,,,,0.000000,,,,,0.074589,,,,,-0.057749,,,
1.400000,,,0.022652,,,,,0.069692,,,,,0.061124,,,,,0.041710,,,,,-0.048733,,,,,0.033394,,,,,0.000000,,,,,0.073936,,,,,-0.062425,,,
1.500000,,,0.031459,,,,,0.072033,,,,,0.063255,,,,,0.038482,,,,,-0.043683,,,,,0.030458,,,,,0.000000,,,,,0.073028,,,,,-0.068671,,,
1.600000,,,0.043091,,,,,0.074375,,,,,0.064952,,,,,0.036727,,,,,-0.037729,,,,,0.028561,,,,,0.000000,,,,,0.072935,,,,,-0.069934,,,
1.800000,,,0.050097,,,,,0.076443,,,,,0.065718,,,,,0.033078,,,,,-0.031473,,,,,0.026359,,,,,0.000000,,,,,0.072023,,,,,-0.075946,,,
1.900000,,,0.052514,,,,,0.076631,,,,,0.064923,,,,,0.019183,,,,,-0.015117,,,,,0.014615,,,,,0.000000,,,,,0.071403,,,,,-0.079407,,,
2.000000,,,0.056753,,,,,0.077048,,,,,0.066575,,,,,0.006059,,,,,0.002671,,,,,0.003116,,,,,0.000000,,,,,0.071449,,,,,-0.079840,,,
2.100000,,,0.046764,,,,,0.076068,,,,,0.065826,,,,,-0.003555,,,,,0.017595,,,,,-0.005876,,,,,0.000000,,,,,0.071433,,,,,-0.079476,,,
2.200000,,,0.025930,,,,,0.071146,,,,,0.064443,,,,,-0.004333,,,,,0.014800,,,,,-0.006620,,,,,0.000000,,,,,0.070801,,,,,-0.083908,,,
2.300000,,,-0.001997,,,,,0.059324,,,,,0.056636,,,,,-0.008538,,,,,0.024831,,,,,-0.020434,,,,,0.000000,,,,,0.069909,,,,,-0.066690,,,
2.400000,,,-0.029911,,,,,0.048719,,,,,0.047822,,,,,-0.012679,,,,,0.034252,,,,,-0.029181,,,,,0.000000,,,,,0.064033,,,,,-0.048247,,,
2.500000,,,-0.045533,,,,,0.036741,,,,,0.037309,,,,,-0.016258,,,,,0.039076,,,,,-0.031444,,,,,0.000000,,,,,0.056008,,,,,-0.039305,,,
2.600000,,,-0.070554,,,,,0.025629,,,,,0.029421,,,,,-0.021100,,,,,0.049854,,,,,-0.049000,,,,,0.000000,,,,,0.048089,,,,,-0.022881,,,
2.800000,,,-0.095298,,,,,0.014329,,,,,0.021232,,,,,-0.025311,,,,,0.060180,,,,,-0.066433,,,,,0.000000,,,,,0.039784,,,,,-0.006673,,,
2.900000,,,-0.108276,,,,,0.002152,,,,,0.011469,,,,,-0.025030,,,,,0.066135,,,,,-0.081113,,,,,0.000000,,,,,0.031693,,,,,0.000666,,,
3.000000,,,-0.126265,,,,,-0.007744,,,,,0.004042,,,,,-0.029030,,,,,0.072617,,,,,-0.096466,,,,,0.000000,,,,,0.023006,,,,,0.014081,,,
3.100000,,,-0.136759,,,,,-0.018464,,,,,-0.005469,,,,,-0.033522,,,,,0.077064,,,,,-0.111391,,,,,0.000000,,,,,0.014885,,,,,0.026060,,,
3.200000,,,-0.119324,,,,,-0.027364,,,,,-0.015425,,,,,-0.037335,,,,,0.084582,,,,,-0.129023,,,,,0.000000,,,,,0.004048,,,,,0.043555,,,
3.300000,,,-0.105481,,,,,-0.040371,,,,,-0.029260,,,,,-0.041522,,,,,0.090932,,,,,-0.138550,,,,,0.000000,,,,,-0.010278,,,,,0.067239,,,
3.400000,,,-0.085429,,,,,-0.041741,,,,,-0.032547,,,,,-0.040540,,,,,0.080003,,,,,-0.124114,,,,,0.000000,,,,,-0.017569,,,,,0.061825,,,
3.500000,,,-0.065267,,,,,-0.042812,,,,,-0.035593,,,,,-0.038224,,,,,0.068094,,,,,-0.114266,,,,,0.000000,,,,,-0.019910,,,,,0.055589,,,
3.600000,,,-0.057537,,,,,-0.042477,,,,,-0.036438,,,,,-0.033592,,,,,0.063045,,,,,-0.112859,,,,,0.000000,,,,,-0.020183,,,,,0.058498,,,
3.800000,,,-0.037884,,,,,-0.043154,,,,,-0.039076,,,,,-0.027557,,,,,0.052191,,,,,-0.096711,,,,,0.000000,,,,,-0.020504,,,,,0.052651,,,
3.900000,,,-0.018193,,,,,-0.043758,,,,,-0.041056,,,,,-0.022223,,,,,0.040810,,,,,-0.079951,,,,,0.000000,,,,,-0.020264,,,,,0.048492,,,
4.000000,,,-0.011486,,,,,-0.043115,,,,,-0.041214,,,,,-0.020609,,,,,0.028222,,,,,-0.063129,,,,,0.000000,,,,,-0.020529,,,,,0.052071,,,
4.100000,,,0.004045,,,,,-0.043243,,,,,-0.042781,,,,,-0.019276,,,,,0.016238,,,,,-0.047042,,,,,0.000000,,,,,-0.020379,,,,,0.048307,,,
4.200000,,,0.015309,,,,,-0.042803,,,,,-0.043654,,,,,-0.018550,,,,,0.001949,,,,,-0.028600,,,,,0.000000,,,,,-0.020395,,,,,0.046712,,,
0.000000,,,,0.026130,,,,,-0.044124,,,,,-0.045374,,,,,-0.006521,,,,,-0.005444,,,,,-0.002247,,,,,0.000000,,,,,-0.019886,,,,,0.036450,,
0.100000,,,,0.005763,,,,,-0.043879,,,,,-0.038841,,,,,0.001989,,,,,-0.009539,,,,,0.004828,,,,,0.000000,,,,,-0.032725,,,,,0.041586,,
0.200000,,,,-0.013023,,,,,-0.044057,,,,,-0.033772,,,,,0.009287,,,,,-0.028081,,,,,0.016817,,,,,0.000000,,,,,-0.032654,,,,,0.046151,,
0.300000,,,,-0.038752,,,,,-0.040580,,,,,-0.025477,,,,,0.016937,,,,,-0.047301,,,,,0.029357,,,,,0.000000,,,,,-0.023585,,,,,0.044431,,
0.400000,,,,-0.058274,,,,,-0.040666,,,,,-0.020803,,,,,0.026200,,,,,-0.067652,,,,,0.043731,,,,,0.000000,,,,,-0.023291,,,,,0.048673,,
0.600000,,,,-0.080016,,,,,-0.040521,,,,,-0.015766,,,,,0.041289,,,,,-0.076169,,,,,0.059879,,,,,0.000000,,,,,-0.020913,,,,,0.055654,,
0.700000,,,,-0.094651,,,,,-0.041135,,,,,-0.010860,,,,,0.058342,,,,,-0.083103,,,,,0.079270,,,,,0.000000,,,,,-0.021009,,,,,0.058482,,
0.800000,,,,-0.115769,,,,,-0.035882,,,,,-0.002385,,,,,0.075817,,,,,-0.089359,,,,,0.098660,,,,,0.000000,,,,,-0.012612,,,,,0.052016,,
0.900000,,,,-0.136932,,,,,-0.030573,,,,,0.005985,,,,,0.074694,,,,,-0.089811,,,,,0.098171,,,,,0.000000,,,,,-0.004221,,,,,0.045790,,
1.000000,,,,-0.157907,,,,,-0.031741,,,,,0.013208,,,,,0.067974,,,,,-0.085245,,,,,0.088363,,,,,0.000000,,,,,-0.029747,,,,,0.055313,,
1.100000,,,,-0.182353,,,,,-0.020121,,,,,0.028434,,,,,0.074624,,,,,-0.092902,,,,,0.096091,,,,,0.000000,,,,,-0.022232,,,,,0.048729,,
1.200000,,,,-0.165522,,,,,-0.009745,,,,,0.031810,,,,,0.069782,,,,,-0.087400,,,,,0.088995,,,,,0.000000,,,,,-0.000984,,,,,0.032920,,
1.300000,,,,-0.148673,,,,,0.001686,,,,,0.036793,,,,,0.062343,,,,,-0.073154,,,,,0.078169,,,,,0.000000,,,,,0.007357,,,,,0.017858,,
1.400000,,,,-0.124731,,,,,0.009904,,,,,0.038704,,,,,0.053781,,,,,-0.060567,,,,,0.066547,,,,,0.000000,,,,,0.006724,,,,,0.012165,,
1.600000,,,,-0.108062,,,,,0.021659,,,,,0.044193,,,,,0.042973,,,,,-0.049789,,,,,0.053212,,,,,0.000000,,,,,0.014813,,,,,-0.000367,,
1.700000,,,,-0.090049,,,,,0.032726,,,,,0.050001,,,,,0.028446,,,,,-0.042704,,,,,0.036819,,,,,0.000000,,,,,0.020866,,,,,-0.016175,,
1.800000,,,,-0.079361,,,,,0.044253,,,,,0.055149,,,,,0.012094,,,,,-0.036975,,,,,0.017001,,,,,0.000000,,,,,0.029388,,,,,-0.027057,,
1.900000,,,,-0.060663,,,,,0.049855,,,,,0.056997,,,,,-0.004608,,,,,-0.030644,,,,,-0.003307,,,,,0.000000,,,,,0.029449,,,,,-0.028626,,
2.000000,,,,0.007098,,,,,0.068154,,,,,0.064936,,,,,0.000709,,,,,-0.014734,,,,,-0.007768,,,,,0.000000,,,,,0.054520,,,,,-0.047810,,
2.100000,,,,0.022489,,,,,0.077558,,,,,0.068107,,,,,0.000512,,,,,-0.013293,,,,,-0.007513,,,,,0.000000,,,,,0.072811,,,,,-0.059811,,
2.200000,,,,0.024452,,,,,0.077428,,,,,0.067976,,,,,-0.000291,,,,,-0.012597,,,,,-0.007674,,,,,0.000000,,,,,0.073008,,,,,-0.059339,,
2.300000,,,,0.021458,,,,,0.075685,,,,,0.066751,,,,,-0.003471,,,,,-0.008949,,,,,-0.010124,,,,,0.000000,,,,,0.063679,,,,,-0.054793,,
2.400000,,,,0.018135,,,,,0.070921,,,,,0.063026,,,,,-0.005694,,,,,-0.003742,,,,,-0.013515,,,,,0.000000,,,,,0.059944,,,,,-0.050074,,
4.000000,,,,0.016771,,,,,0.061694,,,,,0.055307,,,,,-0.005140,,,,,-0.000289,,,,,-0.014056,,,,,0.000000,,,,,0.053248,,,,,-0.043047,,
4.100000,,,,0.015362,,,,,0.057010,,,,,0.050639,,,,,-0.004279,,,,,0.004207,,,,,-0.014004,,,,,0.000000,,,,,0.049641,,,,,-0.039843,,
4.200000,,,,0.014308,,,,,0.052213,,,,,0.045456,,,,,-0.005080,,,,,0.003888,,,,,-0.013901,,,,,0.000000,,,,,0.046041,,,,,-0.035686,,
4.300000,,,,0.013995,,,,,0.047324,,,,,0.040508,,,,,-0.005585,,,,,0.002294,,,,,-0.014056,,,,,0.000000,,,,,0.042459,,,,,-0.032674,,
4.400000,,,,0.013757,,,,,0.042528,,,,,0.035704,,,,,-0.005763,,,,,0.002581,,,,,-0.014004,,,,,0.000000,,,,,0.038842,,,,,-0.029397,,
4.600000,,,,-0.024540,,,,,-0.016436,,,,,-0.021165,,,,,-0.018574,,,,,0.011188,,,,,-0.018354,,,,,0.000000,,,,,-0.016103,,,,,0.019955,,
4.700000,,,,-0.025744,,,,,-0.028099,,,,,-0.031384,,,,,-0.017240,,,,,0.011791,,,,,-0.017070,,,,,0.000000,,,,,-0.024571,,,,,0.027742,,
4.800000,,,,-0.024378,,,,,-0.038804,,,,,-0.041587,,,,,-0.015696,,,,,0.010962,,,,,-0.015908,,,,,0.000000,,,,,-0.033488,,,,,0.034419,,
4.900000,,,,-0.016771,,,,,-0.045842,,,,,-0.049392,,,,,-0.008257,,,,,0.008248,,,,,-0.011198,,,,,0.000000,,,,,-0.020812,,,,,0.034514,,
5.000000,,,,-0.008617,,,,,-0.046300,,,,,-0.051521,,,,,-0.002854,,,,,-0.000262,,,,,-0.005331,,,,,0.000000,,,,,-0.020811,,,,,0.033227,,
5.100000,,,,-0.007481,,,,,-0.046702,,,,,-0.054170,,,,,-0.002854,,,,,-0.000796,,,,,-0.004530,,,,,0.000000,,,,,-0.020830,,,,,0.031368,,
5.200000,,,,-0.002002,,,,,-0.047158,,,,,-0.053790,,,,,-0.003555,,,,,-0.002153,,,,,-0.005264,,,,,0.000000,,,,,-0.020803,,,,,0.030653,,
5.300000,,,,0.002634,,,,,-0.046952,,,,,-0.052698,,,,,-0.002292,,,,,-0.000419,,,,,-0.004897,,,,,0.000000,,,,,-0.020787,,,,,0.029822,,
5.400000,,,,0.006180,,,,,-0.046247,,,,,-0.051812,,,,,0.005287,,,,,-0.005771,,,,,0.004767,,,,,0.000000,,,,,-0.020828,,,,,0.029315,,
5.600000,,,,0.007811,,,,,-0.045730,,,,,-0.051358,,,,,0.021218,,,,,-0.007429,,,,,0.021282,,,,,0.000000,,,,,-0.020796,,,,,0.028902,,
5.700000,,,,-0.017651,,,,,-0.042540,,,,,-0.045344,,,,,0.038622,,,,,-0.018132,,,,,0.040979,,,,,0.000000,,,,,-0.033637,,,,,0.034243,,
5.800000,,,,-0.019178,,,,,-0.038357,,,,,-0.042404,,,,,0.038412,,,,,-0.019639,,,,,0.040122,,,,,0.000000,,,,,-0.033646,,,,,0.034423,,
5.900000,,,,-0.023210,,,,,-0.028243,,,,,-0.034684,,,,,0.038271,,,,,-0.020016,,,,,0.039878,,,,,0.000000,,,,,-0.024778,,,,,0.029365,,
6.000000,,,,-0.029889,,,,,-0.019813,,,,,-0.025926,,,,,0.034329,,,,,-0.020368,,,,,0.035713,,,,,0.000000,,,,,-0.008686,,,,,0.017452,,
6.100000,,,,-0.028805,,,,,-0.006138,,,,,-0.013394,,,,,0.037920,,,,,-0.020544,,,,,0.040979,,,,,0.000000,,,,,0.000814,,,,,0.008655,,
6.200000,,,,-0.024382,,,,,0.005015,,,,,-0.003077,,,,,0.038482,,,,,-0.024916,,,,,0.043731,,,,,0.000000,,,,,0.009169,,,,,0.000138,,
6.300000,,,,-0.020706,,,,,0.016290,,,,,0.007160,,,,,0.038973,,,,,-0.027930,,,,,0.045994,,,,,0.000000,,,,,0.017515,,,,,-0.008083,,
6.400000,,,,-0.016854,,,,,0.027279,,,,,0.017334,,,,,0.039324,,,,,-0.028307,,,,,0.047524,,,,,0.000000,,,,,0.025944,,,,,-0.016336,,
6.600000,,,,-0.012685,,,,,0.038724,,,,,0.027785,,,,,0.032587,,,,,-0.018509,,,,,0.040122,,,,,0.000000,,,,,0.034294,,,,,-0.023987,,
6.700000,,,,-0.008547,,,,,0.050191,,,,,0.038273,,,,,0.016235,,,,,-0.021147,,,,,0.025503,,,,,0.000000,,,,,0.042629,,,,,-0.031837,,
6.800000,,,,0.020420,,,,,0.058937,,,,,0.042837,,,,,0.000304,,,,,-0.009841,,,,,0.006786,,,,,0.000000,,,,,0.063842,,,,,-0.044323,,
6.900000,,,,0.027657,,,,,0.066893,,,,,0.050350,,,,,0.000936,,,,,-0.008710,,,,,0.006847,,,,,0.000000,,,,,0.072173,,,,,-0.053272,,
7.000000,,,,0.039602,,,,,0.070263,,,,,0.054122,,,,,0.001071,,,,,-0.002888,,,,,0.004145,,,,,0.000000,,,,,0.071499,,,,,-0.056611,,
7.100000,,,,0.058343,,,,,0.081792,,,,,0.062303,,,,,-0.006222,,,,,0.004404,,,,,-0.000188,,,,,0.000000,,,,,0.071032,,,,,-0.059614,,
7.200000,,,,0.056507,,,,,0.081469,,,,,0.061499,,,,,-0.008959,,,,,0.004857,,,,,-0.002328,,,,,0.000000,,,,,0.071284,,,,,-0.058157,,
7.300000,,,,0.050678,,,,,0.079621,,,,,0.059938,,,,,-0.013521,,,,,0.010962,,,,,-0.006916,,,,,0.000000,,,,,0.072202,,,,,-0.054230,,
7.400000,,,,0.050139,,,,,0.079471,,,,,0.059127,,,,,-0.025171,,,,,0.027845,,,,,-0.027468,,,,,0.000000,,,,,0.072230,,,,,-0.054498,,
7.600000,,,,0.044440,,,,,0.075296,,,,,0.055342,,,,,-0.034153,,,,,0.049251,,,,,-0.047042,,,,,0.000000,,,,,0.051265,,,,,-0.042500,,
7.700000,,,,0.043638,,,,,0.069771,,,,,0.049233,,,,,-0.039347,,,,,0.080230,,,,,-0.062212,,,,,0.000000,,,,,0.042848,,,,,-0.031253,,
7.800000,,,,0.042149,,,,,0.069503,,,,,0.047858,,,,,-0.044540,,,,,0.088973,,,,,-0.066371,,,,,0.000000,,,,,0.042883,,,,,-0.030140,,
7.900000,,,,0.048822,,,,,0.063441,,,,,0.040497,,,,,-0.052189,,,,,0.095304,,,,,-0.070164,,,,,0.000000,,,,,0.034781,,,,,-0.024415,,
8.000000,,,,0.060771,,,,,0.054038,,,,,0.028656,,,,,-0.062360,,,,,0.100059,,,,,-0.073457,,,,,0.000000,,,,,0.022864,,,,,-0.017224,,
8.100000,,,,0.057447,,,,,0.039667,,,,,0.013812,,,,,-0.068752,,,,,0.095756,,,,,-0.077198,,,,,0.000000,,,,,0.010342,,,,,-0.008252,,
8.200000,,,,0.053558,,,,,0.028255,,,,,0.003342,,,,,-0.061032,,,,,0.082717,,,,,-0.071326,,,,,0.000000,,,,,0.002105,,,,,-0.001979,,
8.300000,,,,0.052285,,,,,0.017558,,,,,-0.006934,,,,,-0.058506,,,,,0.077968,,,,,-0.069980,,,,,0.000000,,,,,-0.006543,,,,,0.002666,,
8.400000,,,,0.055270,,,,,0.008146,,,,,-0.016657,,,,,-0.054505,,,,,0.072315,,,,,-0.067656,,,,,0.000000,,,,,-0.015666,,,,,0.005428,,
8.600000,,,,0.053639,,,,,-0.003011,,,,,-0.027272,,,,,-0.043417,,,,,0.054904,,,,,-0.048877,,,,,0.000000,,,,,-0.023942,,,,,0.011159,,
8.700000,,,,0.054489,,,,,-0.009660,,,,,-0.034452,,,,,-0.034996,,,,,0.030634,,,,,-0.030343,,,,,0.000000,,,,,-0.011452,,,,,0.006368,,
8.800000,,,,0.052254,,,,,-0.015503,,,,,-0.039671,,,,,-0.029873,,,,,0.000033,,,,,-0.017437,,,,,0.000000,,,,,-0.011314,,,,,0.001152,,
8.900000,,,,0.048735,,,,,-0.026528,,,,,-0.049408,,,,,-0.024399,,,,,-0.003887,,,,,-0.015296,,,,,0.000000,,,,,-0.019708,,,,,0.007544,,
9.000000,,,,0.036179,,,,,-0.032669,,,,,-0.053864,,,,,-0.016813,,,,,-0.007724,,,,,-0.011611,,,,,0.000000,,,,,-0.019956,,,,,0.008577,,
0.000000,,,,,-0.001304,,,,,-0.040472,,,,,-0.048832,,,,,0.006024,,,,,-0.002059,,,,,0.012107,,,,,0.000000,,,,,-0.032646,,,,,0.028772,
0.100000,,,,,-0.004253,,,,,-0.029274,,,,,-0.039445,,,,,0.005919,,,,,-0.005695,,,,,0.014493,,,,,0.000000,,,,,-0.025347,,,,,0.024359,
0.200000,,,,,-0.002873,,,,,-0.018246,,,,,-0.029774,,,,,0.006059,,,,,-0.004113,,,,,0.014432,,,,,0.000000,,,,,-0.016960,,,,,0.016240,
0.300000,,,,,-0.001965,,,,,-0.007263,,,,,-0.020205,,,,,0.005498,,,,,-0.003962,,,,,0.013942,,,,,0.000000,,,,,-0.008544,,,,,0.008415,
0.400000,,,,,-0.003131,,,,,0.003514,,,,,-0.011155,,,,,0.005708,,,,,-0.003962,,,,,0.013881,,,,,0.000000,,,,,-0.000073,,,,,0.001295,
0.600000,,,,,-0.003984,,,,,0.014456,,,,,-0.001928,,,,,0.006129,,,,,-0.009012,,,,,0.016450,,,,,0.000000,,,,,0.008323,,,,,-0.005427,
0.700000,,,,,-0.000286,,,,,0.025028,,,,,0.008062,,,,,-0.001380,,,,,-0.007429,,,,,0.002382,,,,,0.000000,,,,,0.016944,,,,,-0.013949,
0.800000,,,,,-0.000741,,,,,0.035856,,,,,0.018266,,,,,-0.000678,,,,,-0.012253,,,,,0.004767,,,,,0.000000,,,,,0.025357,,,,,-0.020092,
0.900000,,,,,0.010920,,,,,0.044106,,,,,0.025107,,,,,-0.001520,,,,,-0.017001,,,,,0.005623,,,,,0.000000,,,,,0.046923,,,,,-0.030149,
1.000000,,,,,0.010560,,,,,0.056474,,,,,0.037167,,,,,-0.003111,,,,,-0.023615,,,,,0.006444,,,,,0.000000,,,,,0.056887,,,,,-0.036488,
1.100000,,,,,0.008653,,,,,0.075364,,,,,0.054672,,,,,-0.008187,,,,,-0.016851,,,,,-0.000432,,,,,0.000000,,,,,0.072590,,,,,-0.049263,
1.200000,,,,,0.004071,,,,,0.072520,,,,,0.053798,,,,,-0.012819,,,,,-0.001851,,,,,-0.010280,,,,,0.000000,,,,,0.050897,,,,,-0.045461,
1.300000,,,,,-0.001807,,,,,0.071474,,,,,0.053196,,,,,-0.018082,,,,,0.006289,,,,,-0.018232,,,,,0.000000,,,,,0.051189,,,,,-0.043352,
1.400000,,,,,-0.008994,,,,,0.066481,,,,,0.049109,,,,,-0.026855,,,,,0.024152,,,,,-0.036093,,,,,0.000000,,,,,0.049283,,,,,-0.028268,
1.600000,,,,,-0.007465,,,,,0.060569,,,,,0.043794,,,,,-0.029311,,,,,0.044955,,,,,-0.050957,,,,,0.000000,,,,,0.040848,,,,,-0.021075,
1.700000,,,,,-0.015765,,,,,0.058919,,,,,0.043987,,,,,-0.032329,,,,,0.045181,,,,,-0.060010,,,,,0.000000,,,,,0.041235,,,,,-0.020686,
1.800000,,,,,-0.013391,,,,,0.052296,,,,,0.037110,,,,,-0.039277,,,,,0.061236,,,,,-0.072305,,,,,0.000000,,,,,0.033210,,,,,-0.016054,
1.900000,,,,,-0.013372,,,,,0.045544,,,,,0.030126,,,,,-0.047417,,,,,0.078345,,,,,-0.086740,,,,,0.000000,,,,,0.025058,,,,,-0.012004,
2.000000,,,,,-0.034478,,,,,0.044288,,,,,0.030165,,,,,-0.059079,,,,,0.098884,,,,,-0.104127,,,,,0.000000,,,,,0.029733,,,,,-0.011415,
2.100000,,,,,-0.035827,,,,,0.030644,,,,,0.017209,,,,,-0.062786,,,,,0.112564,,,,,-0.112431,,,,,0.000000,,,,,0.017479,,,,,-0.002992,
2.200000,,,,,-0.033686,,,,,0.020566,,,,,0.007666,,,,,-0.058295,,,,,0.098922,,,,,-0.102093,,,,,0.000000,,,,,0.008883,,,,,0.004681,
2.300000,,,,,-0.025785,,,,,0.012305,,,,,-0.000730,,,,,-0.053032,,,,,0.083697,,,,,-0.090410,,,,,0.000000,,,,,0.022257,,,,,0.005667,
2.400000,,,,,-0.019666,,,,,0.002189,,,,,-0.010307,,,,,-0.048400,,,,,0.069376,,,,,-0.079767,,,,,0.000000,,,,,0.013665,,,,,0.010480,
2.600000,,,,,-0.014769,,,,,-0.003684,,,,,-0.015438,,,,,-0.039557,,,,,0.051588,,,,,-0.062946,,,,,0.000000,,,,,0.007067,,,,,0.003965,
2.700000,,,,,-0.012749,,,,,-0.008661,,,,,-0.019722,,,,,-0.037101,,,,,0.031840,,,,,-0.049611,,,,,0.000000,,,,,0.007138,,,,,0.002211,
2.800000,,,,,-0.001732,,,,,-0.018058,,,,,-0.029366,,,,,-0.034083,,,,,0.037795,,,,,-0.044167,,,,,0.000000,,,,,-0.001553,,,,,0.008020,
2.900000,,,,,-0.003646,,,,,-0.022391,,,,,-0.032590,,,,,-0.028750,,,,,0.020986,,,,,-0.031995,,,,,0.000000,,,,,-0.001844,,,,,0.011728,
3.000000,,,,,-0.000237,,,,,-0.028147,,,,,-0.037436,,,,,-0.021252,,,,,-0.001921,,,,,-0.014302,,,,,0.000000,,,,,-0.003468,,,,,0.014949,
