Clock Time (s),Elapsed Time (s),ax,ay,az,gx,gy,gz,mr,mtheta,mphi,
71763.1,0.0,-0.27,-0.86,0.40,-0.04,0.03,0.03,46.72205688965331,0.8795565625360771,1.672852471107718,
71763.2,0.09999999999126885,-0.26,-0.85,0.41,0.02,-0.07,0.00,46.44598045041142,0.889921739576335,1.6953484526636216,
71763.3,0.19999999999708962,-0.26,-0.85,0.41,0.01,-0.07,-0.01,45.55907922686761,0.8767367835256417,1.6827531297619793,
71763.4,0.29999999998835847,-0.29,-0.87,0.39,0.01,-0.06,-0.01,46.29247239022777,0.8963619553966342,1.709491987895545,
71763.5,0.39999999999417923,-0.27,-0.86,0.40,-0.00,-0.04,-0.01,45.148131744292584,0.8802674066426278,1.7096755258614613,
71763.6,0.5,-0.26,-0.86,0.41,-0.11,0.25,0.06,45.53643156858033,0.8711601305813099,1.618028829281105,
71763.7,0.5999999999912689,-0.26,-0.86,0.41,-0.26,0.24,0.10,44.52437085462298,0.8462092896466157,1.6301244949731302,
71763.8,0.6999999999970896,-0.27,-0.86,0.41,-0.01,-0.03,-0.01,44.98910423647041,0.8782132816069709,1.709720742996854,
71763.9,0.7999999999883585,-0.26,-0.86,0.41,-0.05,0.03,0.02,44.18209705299195,0.825120847249489,1.5379717097091234,
71764.1,1.0,-0.36,-0.88,0.18,-0.43,1.11,-0.42,45.90099998910699,0.9080285874059677,1.4037938143741826,
71764.2,1.0999999999912689,-0.21,-0.93,0.43,0.07,1.93,-0.54,44.680346910022976,0.8562409810646909,1.47013480662251,
71764.3,1.1999999999970896,-0.35,-0.95,-0.01,0.08,1.92,-0.58,43.35424546685134,0.9877837017903643,1.292504517242507,
71764.4,1.2999999999883585,-0.39,-0.97,0.03,0.04,0.17,0.15,44.507180319584386,0.8678764412594394,1.4715483365355286,
71764.5,1.3999999999941792,-0.50,-0.99,0.03,0.04,-0.33,-0.21,44.347609856676605,0.9616148819899333,1.275881578627473,
71764.6,1.5,-0.21,-0.92,0.77,0.06,1.77,-0.55,45.24907070868969,0.8670173264460589,1.4226274298766324,
71764.7,1.5999999999912689,-0.16,-0.94,0.58,0.02,1.61,-0.52,44.985843328762876,0.873638561108882,1.416581918354524,
71764.8,1.6999999999970896,-0.41,-0.88,0.14,-0.15,0.59,-0.18,44.31233688263349,0.8908344335834464,1.4007245494412799,
71764.9,1.7999999999883585,-0.38,-0.88,0.18,-0.13,0.54,-0.16,44.60224658018921,1.0087025585814573,1.3671598837203112,
71765.1,2.0,-0.29,-0.94,0.17,0.06,0.04,-0.02,43.86348025407925,1.0332173869979544,1.3571533220254055,
71765.2,2.099999999991269,-0.29,-0.94,0.17,0.05,0.01,0.01,43.448665111830536,1.0095423260783316,1.387955509051179,
71765.3,2.1999999999970896,-0.29,-0.94,0.17,0.04,0.01,0.02,43.81641359125596,1.0201312017081097,1.3797531651713237,
71765.4,2.2999999999883585,-0.28,-0.93,0.17,0.04,-0.01,0.04,43.79386258370002,1.0008562747827694,1.3796535747902703,
71765.5,2.3999999999941792,-0.28,-0.94,0.17,0.08,0.09,-0.05,45.208992468313205,0.9940452688086738,1.408838109771618,
71765.6,2.5,-0.28,-0.94,0.18,0.07,0.08,-0.04,44.57447363682492,0.9613025326431355,1.394219081207161,
71765.7,2.599999999991269,-0.28,-0.93,0.18,0.07,0.07,-0.03,44.166508804749334,0.9632410006315326,1.3852037550615734,
71765.8,2.6999999999970896,-0.28,-0.93,0.18,0.07,0.06,-0.03,45.166391266073056,1.0151034214075052,1.3561619297612795,
71765.9,2.7999999999883585,-0.28,-0.93,0.18,0.06,0.05,-0.02,45.06889281977094,1.0214812359674694,1.3481892499928259,
71766.1,3.0,-0.26,-0.92,0.18,0.06,0.06,-0.02,45.65143371242572,0.9618147685370181,1.4130836444663963,
71766.2,3.099999999991269,-0.26,-0.92,0.17,0.02,0.06,-0.02,44.02447728253,0.9514007659927869,1.4258239580696281,
71766.3,3.1999999999970896,-0.25,-0.92,0.18,-0.04,0.08,-0.03,43.88289644041287,0.9295656246277721,1.3895532183394064,
71766.4,3.2999999999883585,-0.25,-0.91,0.18,-0.05,0.06,-0.07,44.57223687453884,0.9454650995793416,1.3996770617813235,
71766.5,3.3999999999941792,-0.26,-0.92,0.18,0.08,-0.02,0.06,44.225931307322405,0.9238101126546082,1.4042881188509508,
71766.6,3.5,-0.25,-0.92,0.18,0.08,-0.01,0.06,44.683806910333864,0.9443899014623366,1.3946556642345365,
71766.7,3.599999999991269,-0.28,-0.93,0.20,0.09,0.01,0.05,44.05234159497086,0.965280811760181,1.397867690954774,
71766.8,3.6999999999970896,-0.26,-0.93,0.18,0.07,0.01,0.02,43.648612807281744,0.9650307338172783,1.390432872097441,
71766.9,3.7999999999883585,-0.26,-0.92,0.17,0.06,0.05,-0.01,44.920817000584485,0.9532091857433016,1.4399716988972266,
71767.1,4.0,-0.26,-0.92,0.19,-0.02,0.06,-0.12,44.36752528595662,1.012051182169848,1.3860543430801446,
71767.2,4.099999999991269,-0.26,-0.92,0.19,0.03,0.12,-0.06,44.52704122216072,0.9775342824836841,1.3860383946176436,
71767.3,4.19999999999709,-0.26,-0.92,0.20,-0.04,0.05,-0.06,45.31533073916597,0.9804261264250993,1.3825534141517284,
71767.4,4.2999999999883585,-0.26,-0.93,0.21,-0.05,0.03,-0.08,44.55692426548314,0.9622665109162517,1.3680955832486927,
71767.5,4.399999999994179,-0.27,-0.93,0.20,-0.05,0.01,-0.12,44.54668001097276,0.9660915610461841,1.3726297358312993,
71767.6,4.5,-0.27,-0.93,0.20,0.01,0.08,0.07,45.47015724626428,0.981416141150692,1.3427423148587772,
71767.7,4.599999999991269,-0.26,-0.92,0.19,-0.03,-0.00,0.02,44.52685818694151,0.9781685265515314,1.3867229985583187,
71767.8,4.69999999999709,-0.27,-0.93,0.20,-0.03,0.04,-0.13,44.45028908792383,0.9945362328905298,1.3864022778488039,
71767.9,4.7999999999883585,-0.28,-0.93,0.20,-0.03,0.04,-0.13,44.04891599120232,0.9931911785697076,1.3466717540531263,
71768.1,5.0,-0.71,-1.10,0.54,0.35,-0.68,0.59,45.700919027958285,0.9888229352885575,1.4059401237947644,
71768.2,5.099999999991269,-0.28,-0.95,0.29,0.06,0.78,0.00,46.039557990927754,0.9783547881610216,1.356517070796441,
71768.3,5.19999999999709,-0.44,-0.95,0.27,2.81,-1.54,2.52,44.51278580363174,0.6484247296806437,1.6738705302268913,
71768.4,5.2999999999883585,-0.49,-0.94,0.28,2.73,-1.70,2.38,45.047631458268704,0.9804535845806052,1.339880786458624,
71768.5,5.399999999994179,-0.50,-0.94,0.32,0.13,1.09,0.08,44.81848948815656,0.09486511661746216,2.115934210952418,
71768.6,5.5,-0.54,-0.95,0.40,0.14,-0.09,0.27,44.17794585536996,0.9824053234740062,1.3245277748827817,
71768.7,5.599999999991269,-0.30,-0.95,0.28,0.25,-0.48,0.44,45.74861090787348,0.9759655389470261,1.3162453041268207,
71768.8,5.69999999999709,-0.31,-0.95,0.27,0.10,-0.57,0.10,42.83721512890398,5.748802193809772,2.4164648499966095,
71769.1,6.0,-0.06,0.27,0.88,-0.57,-2.42,0.16,43.24032377307089,5.804809838042046,2.4205998393680117,
71769.2,6.099999999991269,0.00,0.24,1.09,-0.21,-0.47,0.20,43.50582489736288,5.775584542658715,2.578978744139484,
71769.3,6.19999999999709,-0.06,0.27,0.90,0.24,-0.12,0.24,43.54688737441518,5.749546813608181,2.441004822037419,
71769.4,6.2999999999883585,-0.04,0.26,0.90,0.04,0.24,-0.20,44.24791407512901,5.7969896812328585,2.4101564490658847,
71769.5,6.399999999994179,0.09,0.29,1.02,0.02,0.21,-0.20,43.58901467113016,5.795933851739408,2.4427074146674355,
71769.6,6.5,0.00,0.28,0.88,-0.05,0.05,-0.15,43.833013813791084,5.617473025107956,2.5609818663629937,
71769.7,6.599999999991269,0.05,0.30,0.84,-0.18,-0.03,-0.39,44.14601454265153,5.7835654733937245,2.4181904733439805,
71769.8,6.69999999999709,0.03,0.22,0.46,-0.28,-0.54,0.05,44.57115771437848,5.7750861898420895,2.40044880218383,
71769.9,6.7999999999883585,-0.48,-0.08,0.78,-0.50,-2.10,0.28,45.14790249834426,5.790268436787982,2.4025685659951352,
71770.1,7.0,-0.10,0.16,0.70,-1.48,0.58,-0.68,44.92097060393954,5.956409669452132,2.3655596544197905,
71770.2,7.099999999991269,-0.12,0.11,0.70,-1.53,0.59,-0.71,44.6461879671714,5.973139052899395,2.371850904086095,
71770.3,7.19999999999709,-0.13,0.07,0.70,-1.58,0.60,-0.74,44.4787960718363,5.983899424832979,2.3757418606049505,
71770.4,7.2999999999883585,-0.16,-0.02,0.71,-1.63,0.61,-0.78,45.95326538995896,0.7653638528736104,1.6247904315833137,
71770.5,7.399999999994179,-0.08,0.19,0.68,-1.88,0.79,-1.23,44.627267449396896,6.115348322499079,2.3677892133931993,
71770.6,7.5,-0.24,-0.08,0.78,-1.66,0.62,-0.83,44.70275830415837,1.0067957355423303,1.3449579354962402,
71770.7,7.599999999991269,-0.28,-0.09,0.79,-1.98,0.92,-1.31,44.68594969338797,6.137266038988124,2.3658067720965095,
71770.8,7.69999999999709,-0.29,-0.10,0.78,-2.03,1.00,-1.35,44.8047062260205,1.079632728508636,1.2111192906869714,
71770.9,7.7999999999883585,-0.30,-0.11,0.76,0.02,-1.00,0.31,43.3525293379752,6.209072228922217,2.386511421037091,
71771.1,8.0,-0.34,-0.94,0.11,-0.07,-0.50,0.05,44.57265641623797,0.9835103355025111,1.2701415368499878,
71771.2,8.099999999991269,-0.34,-0.94,0.10,-0.09,-0.43,0.07,45.69984354458995,0.9506795618581995,1.280978364740901,
71771.3,8.19999999999709,-0.34,-0.93,0.10,-0.10,-0.41,0.08,43.921618822625376,0.9918447445819719,1.272457626040701,
71771.4,8.299999999988358,-0.33,-0.95,0.11,-0.11,-0.39,0.09,45.33179237577089,0.959674240647254,1.2801684183635504,
71771.5,8.39999999999418,-0.34,-0.93,0.10,-0.17,-0.34,0.14,44.618311263426364,0.9833143870466842,1.2699894921674968,
71771.6,8.5,-0.32,-0.94,0.11,-0.17,-0.33,0.13,44.95054170975028,0.9821472273456734,1.267622955597075,
71771.7,8.599999999991269,-0.32,-0.93,0.12,0.16,-0.88,0.46,44.178936157404245,0.956999787478844,1.2669027569691305,
71771.8,8.69999999999709,-0.32,-0.94,0.12,0.82,-0.94,1.50,45.694582829915404,0.9792264049614148,1.2623936381936016,
71771.9,8.799999999988358,-0.32,-0.94,0.13,-0.18,-0.33,0.12,43.870671296436754,0.9927729042379692,1.2751995538202205,
71772.1,9.0,-0.47,-0.26,0.60,2.23,-1.65,2.15,44.77207723570574,0.4085989334727302,1.8033886456821497,
71772.2,9.099999999991269,-0.63,-0.58,0.65,2.45,-2.29,2.57,44.90496965815699,0.3717380488578738,1.829086997714327,
71772.3,9.19999999999709,-0.59,-0.49,0.63,2.43,-1.87,2.38,45.38142902113154,0.3034910792069976,1.874924741813811,
71772.4,9.299999999988358,-0.57,-0.42,0.63,2.39,-1.80,2.34,43.614191497722395,5.76001701805707,2.272685428206645,
71772.5,9.39999999999418,-0.55,-0.40,0.62,2.35,-1.74,2.29,43.96759261092197,0.2666329692662468,1.9112155404714233,
71772.6,9.5,-0.64,-0.59,0.65,2.33,-1.72,2.27,43.30948164086013,5.605251462014904,2.365893179836071,
71772.7,9.599999999991269,-0.49,-0.33,0.59,2.26,-1.66,2.18,43.30280129506635,0.24695293516543654,1.9299461366785942,
71772.8,9.69999999999709,-0.47,-0.30,0.59,-0.04,0.06,-0.19,43.54880136123152,5.643676193148725,2.3797365885766375,
71772.9,9.799999999988358,-0.46,-0.28,0.60,-0.14,-0.19,-0.09,43.41411291273841,0.1762346977366758,1.967641106518408,
71773.1,10.0,-0.05,0.28,0.98,0.09,-0.14,-0.01,43.282815296604724,5.70735013791376,2.415994917420267,
71773.2,10.099999999991269,-0.03,0.30,0.94,0.02,-0.01,-0.05,43.47467423684736,5.736576883309438,2.4169129193380656,
71773.3,10.19999999999709,-0.01,0.33,0.94,0.10,0.10,-0.00,43.30244681308436,5.660432279736131,2.442685334313108,
71773.4,10.299999999988358,-0.01,0.34,0.92,0.13,0.05,0.05,43.86286470352797,5.6839612295268,2.4217187589225624,
71773.5,10.39999999999418,-0.04,0.28,0.97,0.12,-0.04,0.01,43.45345786010591,5.65516132077794,2.4244396585962793,
71773.6,10.5,-0.01,0.33,0.93,0.11,-0.08,0.00,44.53040871135139,5.686020151404625,2.439547704295892,
71773.7,10.599999999991269,-0.01,0.32,0.92,0.10,-0.12,-0.01,43.92057148990664,5.677901887962804,2.4188436517965943,
71773.8,10.69999999999709,-0.00,0.31,0.90,-0.14,0.19,0.19,43.303637260627426,5.6456365090408935,2.4213852593209864,
71773.9,10.799999999988358,-0.00,0.30,0.90,-0.48,0.35,0.16,42.82572474576467,5.652768610134774,2.4108004797535427,
71774.1,11.0,-0.07,0.13,0.76,-0.95,0.42,-0.11,43.461143565258375,5.784036526906214,2.4348011686960978,
71774.2,11.099999999991269,-0.06,0.12,0.76,-1.03,0.44,-0.15,43.58672963185011,5.7891963282809895,2.4303787104753036,
71774.3,11.19999999999709,-0.04,0.13,0.78,-1.22,0.50,-0.24,42.33522174265773,0.1393388500647196,2.262085102038617,
71774.4,11.299999999988358,-0.04,0.14,0.80,-1.27,0.54,-0.30,44.65101230655359,5.81509657267711,2.3984967337732614,
71774.5,11.39999999999418,-0.05,0.14,0.80,-1.30,0.61,-0.38,44.2548889954545,5.829178857716687,2.40626795794274,
71774.6,11.5,-0.06,0.13,0.81,-1.34,0.67,-0.45,46.19497483493199,0.6309697729039923,1.7648908320859253,
71774.7,11.599999999991269,-0.07,0.11,0.81,-1.37,0.73,-0.52,43.49277181325651,5.8595039091626875,2.4223561011523476,
71774.8,11.69999999999709,-0.46,-0.92,0.27,-0.29,1.80,-0.91,44.038841946627066,0.9048270894157868,1.4061066829554043,
71774.9,11.799999999988358,-0.09,0.07,0.83,-0.23,0.86,-0.70,43.58287048830079,5.874863394854912,2.4224333509220894,
71775.1,12.0,-0.38,-0.92,0.14,-0.06,0.58,-0.08,44.46786142822702,1.029570310044615,1.274352412746831,
71775.2,12.099999999991269,-0.37,-0.92,0.14,-0.00,-0.08,-0.01,43.5548367004171,1.05251480001406,1.2703477046784069,
71775.3,12.19999999999709,-0.33,-0.94,0.08,-0.04,-0.27,0.03,43.427853964938215,1.0912770348023004,1.2447487533722084,
71775.4,12.299999999988358,-0.31,-0.94,0.11,-0.04,-0.35,0.07,44.761270089218876,1.0484358137964207,1.2761205160515334,
71775.5,12.39999999999418,-0.37,-0.92,0.14,-0.01,-0.18,0.05,42.58899036135982,1.025971191826409,1.2268803379225086,
71775.6,12.5,-0.38,-0.92,0.14,0.00,-0.17,0.04,45.422545062997074,1.0464612302106178,1.2791573098543538,
71775.7,12.599999999991269,-0.33,-0.94,0.21,-0.27,0.07,-0.08,44.12042610854977,1.0204940977118095,1.2344865237494558,
71775.8,12.69999999999709,-0.33,-0.94,0.21,-0.17,0.30,-0.08,45.080401506641444,1.003799848698689,1.2692209427426164,
71775.9,12.799999999988358,-0.33,-0.94,0.18,-0.09,0.51,-0.08,44.00289195041616,1.017972566961104,1.2304201677476305,
71776.1,13.0,-0.32,-0.93,0.12,-0.01,-0.04,-0.01,45.05388884436059,1.0385288198523297,1.2615904652446177,
71776.2,13.099999999991269,-0.32,-0.93,0.12,-0.01,-0.10,0.01,44.85939589428284,1.0379937414357505,1.2651178189234784,
71776.3,13.19999999999709,-0.32,-0.94,0.13,-0.00,-0.02,-0.00,46.07102668706223,1.0110198913761825,1.279076924865578,
71776.4,13.299999999988358,-0.32,-0.94,0.13,-0.00,-0.02,-0.00,45.51025049370746,1.0056609985912484,1.294841159675883,
71776.5,13.39999999999418,-0.32,-0.94,0.13,-0.00,-0.02,-0.01,44.16883063881134,1.0211908398906848,1.2706252628008496,
71776.6,13.5,-0.32,-0.93,0.12,-0.01,-0.04,-0.01,44.122182629602534,1.004999075450775,1.257220959632324,
71776.7,13.599999999991269,-0.33,-0.93,0.12,-0.01,-0.04,-0.01,43.87740306809417,1.0332017934209277,1.2685687938050174,
71776.8,13.69999999999709,-0.32,-0.93,0.12,-0.01,0.01,-0.02,43.503455035203814,0.9843187187499356,1.292528182036491,
71776.9,13.799999999988358,-0.33,-0.93,0.13,-0.01,0.01,-0.02,44.3622429550175,1.0210728878736655,1.2719744555126586,
71777.1,14.0,-0.31,-0.93,0.13,-0.03,-0.01,-0.00,44.71238530877099,1.0040491903723294,1.2774245065060197,
71777.2,14.099999999991269,-0.31,-0.92,0.12,-0.03,-0.00,-0.00,44.71754018279628,0.999655531420661,1.2744210730890209,
71777.3,14.19999999999709,-0.31,-0.93,0.13,0.66,-1.04,0.96,43.976823441444694,0.9701650085436286,1.320562575684204,
71777.4,14.299999999988358,-0.31,-0.92,0.14,1.72,-1.41,2.09,44.65350154243226,0.9919772705245657,1.288471096568199,
71777.5,14.39999999999418,-0.31,-0.93,0.12,-0.03,-0.00,-0.00,44.612629377789425,0.981313005859146,1.3079896235808524,
71777.6,14.5,-0.31,-0.92,0.13,-0.02,0.01,-0.00,45.3532457493397,0.2973941122594292,1.9216994856383192,
71777.7,14.599999999991269,-0.31,-0.93,0.14,-0.02,-0.01,-0.00,45.08994233751026,0.9985173058809064,1.2956588849090638,
71777.8,14.69999999999709,-0.31,-0.93,0.14,-0.01,0.04,-0.00,45.339559989042684,1.0069897390709501,1.2898746308857585,
71777.9,14.799999999988358,-0.31,-0.93,0.14,0.26,-0.92,0.77,44.55590421032885,5.72892482665773,2.257846502599004,
71778.1,15.0,0.01,0.28,0.81,-0.12,-0.60,0.18,44.803104803127205,5.626892632666735,2.324171397627949,
71778.2,15.099999999991269,0.05,0.32,0.78,-0.12,-0.42,0.08,43.928051402264586,5.606979317866913,2.394547401230109,
71778.3,15.19999999999709,-0.02,0.27,0.83,-0.00,0.05,-0.07,43.9570938529835,5.6092416142763835,2.3477889443845905,
71778.4,15.299999999988358,-0.04,0.27,0.85,0.04,0.01,-0.08,43.6442184028996,5.60944271734236,2.342320516966164,
71778.5,15.39999999999418,-0.05,0.27,0.85,-0.11,-0.34,0.06,43.90866543178009,5.611688190288624,2.348234775561349,
71778.6,15.5,-0.06,0.28,0.85,-0.12,-0.29,0.04,43.27822778256984,5.617325576835865,2.35057901073099,
71778.7,15.599999999991269,0.04,0.31,0.80,-0.13,-0.29,0.03,43.591914387877026,5.568443260731189,2.448711322598064,
71778.8,15.69999999999709,0.02,0.30,0.80,-0.13,-0.56,0.15,42.79289777521499,5.610848731907523,2.410256031981772,
71778.9,15.799999999988358,-0.03,0.28,0.89,-0.13,-0.52,0.12,43.25027167544731,5.615972198341309,2.3521949521952883,
71779.1,16.0,-0.02,0.31,0.81,-0.19,0.07,0.05,42.760039756763554,5.6899419456128175,2.3409015354944946,
71779.2,16.09999999999127,-0.02,0.31,0.81,-0.17,0.09,0.05,44.50585242414755,5.796204873582056,2.3388548099757642,
71779.3,16.19999999999709,-0.00,0.30,0.80,-1.47,0.90,-1.07,42.97436212441088,5.612921946972799,2.3575952965967373,
71779.4,16.29999999998836,-0.00,0.29,0.78,-1.63,1.29,-1.49,44.03770316444762,6.2529274822902625,2.2696132745390303,
71779.5,16.39999999999418,0.01,0.28,0.77,-0.24,0.07,0.04,42.948160612533805,5.618481279559644,2.362174564392244,
71779.6,16.5,-0.00,0.27,0.77,-0.41,0.36,-0.01,44.18387941319775,0.4612495320629766,1.9510716077207688,
71779.7,16.59999999999127,-0.01,0.27,0.77,-0.46,0.54,-0.02,43.048779309058226,5.641999166675521,2.3906282905129754,
71779.8,16.69999999999709,-0.04,0.30,0.80,-0.50,0.64,-0.04,44.63697234356291,0.7716048412928485,1.530908493851692,
71779.9,16.79999999998836,-0.03,0.31,0.81,-0.52,0.69,-0.05,45.00927682156202,0.9856132646478761,1.3887181540930271,
71780.1,17.0,-0.48,-0.91,0.19,-0.27,0.80,-0.62,45.9049213048013,1.113602884909738,1.2563026456019186,
71780.2,17.09999999999127,-0.47,-0.91,0.19,-0.29,0.76,-0.57,45.6076890447214,1.0280828066750338,1.3136279447061754,
71780.3,17.19999999999709,-0.47,-0.92,0.19,-0.32,0.63,-0.48,44.9170914018261,1.0757242695792468,1.2876233427009716,
71780.4,17.29999999998836,-0.47,-0.92,0.18,-0.32,0.55,-0.45,45.11822137451785,1.0876203542620788,1.2847643530341193,
71780.5,17.39999999999418,-0.47,-0.92,0.17,0.01,-0.46,0.03,44.02496564450676,1.059432156623865,1.2264985439419762,
71780.6,17.5,-0.47,-0.94,0.14,-0.01,-0.40,0.12,45.669108815478324,1.1011326794329026,1.2883100752993673,
71780.7,17.59999999999127,-0.31,-0.93,0.10,-0.04,-0.11,0.09,45.04668356272191,1.0425219783212245,1.2842972716875454,
71780.8,17.69999999999709,-0.46,-0.94,0.14,-0.32,0.47,-0.43,45.835978226716186,1.1049143115999203,1.2893665840494806,
71780.9,17.79999999998836,-0.48,-0.91,0.19,-0.36,0.22,-0.35,43.54405355499186,1.0198015243053047,1.276996011250784,
71781.1,18.0,-0.32,-0.93,0.12,0.02,-0.01,-0.01,45.53737805363853,1.0215498174513646,1.2721112492951592,
71781.2,18.09999999999127,-0.32,-0.93,0.13,-0.00,-0.05,0.01,44.425714400558604,1.023449275029672,1.2815862585888032,
71781.3,18.19999999999709,-0.32,-0.93,0.12,-0.02,-0.01,0.01,44.33343997480908,1.024946502207248,1.2682318106325976,
71781.4,18.29999999998836,-0.32,-0.93,0.14,0.04,0.04,0.00,45.834124841650464,1.0279092431107515,1.270680081224353,
71781.5,18.39999999999418,-0.32,-0.93,0.12,0.04,0.05,0.00,44.27884144825833,1.0129468425987642,1.27918465223228,
71781.6,18.5,-0.32,-0.93,0.12,0.04,0.04,0.00,45.15585676299366,1.0015992842089472,1.2999802066909045,
71781.7,18.59999999999127,-0.32,-0.93,0.12,0.03,0.01,-0.01,44.05015096455403,0.9992433173364677,1.2509566633164937,
71781.8,18.69999999999709,-0.32,-0.93,0.12,0.03,0.00,-0.01,45.14294297008116,1.0048789979701236,1.2964505827757111,
71781.9,18.79999999998836,-0.32,-0.93,0.12,-0.02,0.01,-0.00,45.0946659816879,1.0198993563100056,1.2809101847471382,
71782.1,19.0,-0.31,-0.93,0.13,-0.00,0.01,-0.01,44.40018693654341,1.0197773778128003,1.2568836306538924,
71782.2,19.09999999999127,-0.31,-0.93,0.12,-0.01,-0.01,0.01,45.41794469149831,1.025141272267905,1.2370088509192299,
71782.3,19.19999999999709,-0.31,-0.93,0.12,-0.01,-0.01,0.01,44.32362913841781,1.0197773778128003,1.2622483608344153,
71782.4,19.29999999998836,-0.32,-0.93,0.12,-0.01,-0.01,0.01,44.107430213060475,1.0197773778128003,1.2780179251724402,
71782.5,19.39999999999418,-0.31,-0.93,0.12,-0.01,-0.01,0.01,44.09961110939642,1.0086738612199269,1.2701393923860853,
71782.6,19.5,-0.31,-0.93,0.12,0.01,-0.06,0.02,44.471088360866545,1.010549854289658,1.2699042438891657,
71782.7,19.59999999999127,-0.31,-0.93,0.12,0.04,-0.05,-0.00,45.96759075696702,1.034584595941489,1.249188596836232,
71782.8,19.69999999999709,-0.31,-0.93,0.12,0.00,0.01,-0.01,44.640574593076195,1.006372414603333,1.2661546858453272,
71782.9,19.79999999998836,-0.32,-0.93,0.12,-0.01,-0.02,0.01,44.28631955807572,1.003173487055629,1.2520091537331317,
71783.1,20.0,-0.82,-0.68,0.70,2.71,-2.74,2.88,44.05435392784691,0.4667547973440214,1.7705126366726098,
71783.2,20.09999999999127,-0.75,-0.62,0.62,2.90,-2.25,3.03,43.05337152883616,6.078301343660645,2.188642667362245,
71783.3,20.19999999999709,-0.72,-0.60,0.60,2.76,-2.64,2.90,44.30645212607301,0.4321799925540746,1.820992197179612,
71783.4,20.29999999998836,-0.65,-0.55,0.60,2.86,-2.21,2.98,43.816245845576496,5.702059934808706,2.32746554857021,
71783.5,20.39999999999418,-0.62,-0.53,0.60,2.85,-2.21,2.95,43.50843711281755,0.35806345680997603,1.885321827244432,
71783.6,20.5,-0.82,-0.70,0.73,2.83,-2.21,2.86,43.57231230953896,5.642941515856307,2.3597620919492566,
71783.7,20.59999999999127,-0.54,-0.39,0.62,2.83,-2.20,2.75,43.535532614176205,5.633556178099964,2.370121372350508,
71783.8,20.69999999999709,-0.54,-0.37,0.61,0.20,0.12,-0.14,43.96318573533997,0.4999709298643106,1.7205714288355434,
71783.9,20.79999999998836,-0.82,-0.70,0.72,2.80,-2.54,2.92,43.11259792682413,5.6475149976096555,2.3839671260909774,
71784.1,21.0,-0.05,0.34,0.93,0.06,-0.38,-0.09,43.67377931894606,5.612921946972799,2.373440552606706,
71784.2,21.09999999999127,-0.05,0.34,0.89,0.08,-0.27,-0.10,43.574111580157314,5.625691422588694,2.4084900438072,
71784.3,21.19999999999709,-0.05,0.35,0.87,0.12,-0.08,-0.12,44.13386114991527,5.606345291632573,2.4015432971479127,
71784.4,21.29999999998836,-0.05,0.36,0.86,0.14,0.00,-0.12,44.66511950056778,5.644976904505538,2.3981530349072844,
71784.5,21.39999999999418,-0.05,0.35,0.94,0.02,0.02,-0.07,44.248881341792135,5.595095704435932,2.3652263805752702,
71784.6,21.5,-0.03,0.38,0.85,0.18,0.15,-0.11,44.07435648991372,5.607757842038963,2.406061166774485,
71784.7,21.59999999999127,-0.03,0.38,0.85,0.20,0.23,-0.10,43.221007623608216,5.694508524787806,2.412384443121306,
71784.8,21.69999999999709,-0.01,0.38,0.88,-1.44,0.66,-0.60,44.384840880643026,5.565336029913555,2.3779456360263005,
71784.9,21.79999999998836,0.00,0.37,0.93,-1.80,1.25,-1.43,44.29051704371942,6.2236242432485,2.3313357542192295,
71785.1,22.0,-0.32,-0.28,0.89,-1.57,1.69,-1.96,44.712667108997195,0.2159297108766157,2.1738705664505273,
71785.2,22.09999999999127,-0.33,-0.29,0.88,-1.69,1.56,-2.00,44.258184553820094,0.25368377115484814,2.149323669185533,
71785.3,22.19999999999709,-0.34,-0.30,0.88,-1.64,1.67,-2.04,43.5202803299795,0.33131562599726266,2.094391383473783,
71785.4,22.29999999998836,-0.34,-0.31,0.87,-1.60,1.73,-2.05,45.08637266403231,0.9848721985562243,1.3544126743536458,
71785.5,22.39999999999418,-0.34,-0.33,0.87,-1.60,1.75,-2.05,43.78282425792105,0.39493147901869863,2.073645691340918,
71785.6,22.5,-0.36,-0.34,0.85,-1.60,1.75,-2.05,44.752093805765114,1.1773329792095883,1.165873261830414,
71785.7,22.59999999999127,-0.36,-0.35,0.85,-1.59,1.73,-2.03,45.46268579835555,1.1312797832177173,1.204333010770574,
71785.8,22.69999999999709,-0.37,-0.37,0.84,-1.58,1.71,-2.00,44.07636781768661,0.4319959139793283,2.0553149935639485,
71785.9,22.79999999998836,-0.54,-0.75,0.77,-0.06,-0.30,0.15,45.01067984378818,0.4848304180497821,1.9982646673464146,
71786.1,23.0,-0.33,-0.92,0.15,-0.16,-0.62,0.17,44.79754792396566,1.0478952498313,1.3090999757616524,
71786.2,23.09999999999127,-0.33,-0.92,0.15,-0.05,-0.27,0.11,44.22834950571861,0.9437256642058782,1.2990854906595548,
71786.3,23.19999999999709,-0.33,-0.93,0.15,0.04,0.04,-0.08,45.684699845790824,1.0162943555395383,1.2765366207157396,
71786.4,23.29999999998836,-0.33,-0.93,0.16,-0.18,-0.60,0.21,45.43908999969079,0.9305648126355452,1.3222000204280235,
71786.5,23.39999999999418,-0.33,-0.94,0.16,-0.19,-0.63,0.18,43.54853499258041,0.956999787478844,1.3170993234620783,
71786.6,23.5,-0.33,-0.92,0.13,-0.18,-0.64,0.17,45.87988448111002,1.0383375142461169,1.296442660845385,
71786.7,23.59999999999127,-0.33,-0.92,0.14,-0.17,-0.63,0.17,45.359314368715935,1.0157417955282753,1.2727479038081255,
71786.8,23.69999999999709,-0.33,-0.92,0.15,-0.03,0.03,0.02,44.651425509159274,1.0080140612882782,1.327192400322124,
71786.9,23.79999999998836,-0.32,-0.92,0.17,-0.03,-0.03,0.05,43.99085586800967,1.0247725966974386,1.2869415899395928,
71787.1,24.0,-0.31,-0.93,0.16,-0.02,-0.06,0.04,46.757794002711464,1.0395945712860277,1.2696291643589708,
71787.2,24.09999999999127,-0.31,-0.93,0.15,-0.04,-0.08,0.07,45.552361080409426,1.0280458284151859,1.321472231831668,
71787.3,24.19999999999709,-0.31,-0.93,0.14,-0.04,-0.09,0.07,44.54526349680738,1.0092456439416317,1.3152473510002234,
71787.4,24.29999999998836,-0.32,-0.93,0.15,-0.04,-0.09,0.07,44.87951091533864,0.9996814061096448,1.2959559253060147,
71787.5,24.39999999999418,-0.32,-0.93,0.16,-0.03,-0.08,0.06,45.14016504178956,1.000303277669499,1.292518717948274,
71787.6,24.5,-0.32,-0.93,0.16,-0.03,-0.07,0.05,45.423612802153905,0.985544483965352,1.2678821150500195,
71787.7,24.59999999999127,-0.32,-0.93,0.16,-0.02,-0.06,0.05,45.1059530439165,0.9820255267400955,1.2888415335062218,
71787.8,24.69999999999709,-0.32,-0.93,0.16,-0.02,-0.06,0.04,43.91545286115128,0.6356157715237746,1.530252790709785,
71787.9,24.79999999998836,-0.31,-0.93,0.16,2.71,-2.37,3.01,44.969558592452294,0.9802325814532027,1.2988298389111634,
71788.1,25.0,-0.21,0.09,0.58,1.41,-1.66,1.40,43.15685345342035,6.045150976867737,2.17056634113509,
71788.2,25.09999999999127,-0.06,0.29,0.70,0.44,-0.51,0.60,44.68089748427173,6.205014594984784,2.083819851192895,
71788.3,25.19999999999709,-0.40,-0.08,0.58,0.16,-0.59,0.41,44.046052036476546,5.612034412239014,2.3074282492316542,
71788.4,25.29999999998836,0.00,0.34,0.86,-0.00,-0.33,0.15,44.50599959556015,6.2350174656396495,2.0713772821796788,
71788.5,25.39999999999418,-0.01,0.36,0.87,2.10,-1.82,1.93,45.410007707552744,6.157910953816458,2.159091675053622,
71788.6,25.5,-0.40,-0.05,0.56,2.07,-1.79,1.89,43.461195335609446,5.514392439650775,2.3304361125760122,
71788.7,25.59999999999127,-0.40,-0.07,0.56,1.48,-1.73,1.47,43.49080132625748,5.5424294042381055,2.366896886703733,
71788.8,25.69999999999709,-0.24,0.08,0.60,0.01,-0.00,-0.04,43.169791521386806,6.055107016905869,2.1664385162365973,
71788.9,25.79999999998836,-0.11,0.42,0.84,0.07,-0.05,-0.04,45.297268129546175,5.5461087387604335,2.3321293819356343,
71789.1,26.0,0.04,0.40,1.00,-0.05,-0.02,-0.14,42.83403319791401,5.543864017881888,2.382689560504053,
71789.2,26.09999999999127,0.03,0.41,0.97,-0.00,0.12,-0.07,43.68518856546232,5.56911072694076,2.3442841722811103,
71789.3,26.19999999999709,-0.02,0.41,0.83,-0.02,0.16,0.12,43.49868158921601,5.567773437153965,2.3267704957705964,
71789.4,26.29999999998836,-0.02,0.40,0.80,-0.09,0.20,0.10,42.50524791128738,5.527087079934973,2.3523507234397694,
71789.5,26.39999999999418,-0.01,0.39,0.79,-0.52,0.50,-0.21,42.63395243230447,5.605621612090725,2.308969648970992,
71789.6,26.5,-0.09,0.13,0.65,0.12,0.35,0.01,42.98652579588166,5.733340663993877,2.2946814652578444,
71789.7,26.59999999999127,-0.24,0.06,0.79,0.20,0.57,0.01,41.8247175722682,5.535653238410525,2.3519922052060265,
71789.8,26.69999999999709,-0.77,-0.29,0.46,0.11,0.25,-0.00,41.924532197747894,5.53954822501321,2.350639965847462,
71789.9,26.79999999998836,-0.74,-0.55,0.51,-0.06,-0.11,-0.10,43.25282071726652,5.586929394740323,2.3353420088328436,
71790.1,27.0,-0.76,-0.88,0.41,-0.44,1.08,-2.30,44.592112531253775,0.5603822260203731,1.5806637027771557,
71790.2,27.09999999999127,-0.75,-0.91,0.39,-0.64,1.23,-1.57,44.921556072780916,0.6233292660951335,1.5567714196268228,
71790.3,27.19999999999709,-0.76,-0.93,0.38,-0.51,0.76,-0.44,45.4812203002514,1.1852585455987914,1.2265344685049338,
71790.4,27.29999999998836,-0.76,-0.97,0.35,-0.71,1.59,-2.75,44.72935948568904,0.6613179911907509,1.5233824010313186,
71790.5,27.39999999999418,-0.75,-0.98,0.33,-0.69,1.57,-2.75,44.64793500264038,0.7075776454818427,1.4833347985506693,
71790.6,27.5,-0.73,-1.01,0.31,-0.48,1.29,-2.61,43.58630174722329,1.1764787995428678,1.1988633411259688,
71790.7,27.59999999999127,-0.71,-1.01,0.29,-0.45,1.21,-2.50,44.74254463036272,0.7522470477520017,1.4423776225408058,
71790.8,27.69999999999709,-0.70,-1.02,0.27,-0.44,1.16,-2.43,44.472501616167264,1.054527488452348,1.3224825054804952,
71790.9,27.79999999998836,-0.29,-0.91,0.12,-0.44,1.12,-2.37,44.802670679324464,0.7830054418510441,1.4252018555344188,
71791.1,28.0,-0.29,-0.92,0.15,-0.27,-0.37,0.10,45.1334620874579,1.0044678130949587,1.3485130732620187,
71791.2,28.09999999999127,-0.30,-0.92,0.15,-0.30,-0.37,0.06,44.806047582887736,0.9861697216323471,1.3326459053985986,
71791.3,28.19999999999709,-0.29,-0.92,0.17,-0.31,-0.35,0.04,43.13616232350764,1.0290162831461167,1.3028588519550377,
71791.4,28.29999999998836,-0.29,-0.92,0.17,0.15,0.09,-0.21,44.62442604672916,0.9749728685398514,1.3233456137150215,
71791.5,28.39999999999418,-0.29,-0.93,0.17,0.15,0.15,-0.11,45.441130047568144,1.018046317328342,1.2909775152044796,
71791.6,28.5,-0.29,-0.92,0.18,0.07,0.06,-0.01,45.01651919018173,1.079289929876353,1.325545391578301,
71791.7,28.59999999999127,-0.29,-0.93,0.18,-0.25,-0.38,0.14,44.268794878559774,0.9595165468638058,1.3213156158177206,
71791.8,28.69999999999709,-0.30,-0.93,0.19,-0.26,-0.38,0.13,44.94454694398421,0.9745220298912913,1.2956704235472625,
71791.9,28.79999999998836,-0.30,-0.92,0.18,-0.27,-0.37,0.11,44.47472315821651,1.0279727923704398,1.295725650847344,
71792.1,29.0,-0.29,-0.94,0.18,-0.03,-0.10,0.07,44.747527305986424,1.0264740187814283,1.2955885931944424,
71792.2,29.09999999999127,-0.31,-0.93,0.16,-0.02,-0.09,0.06,45.997881472954816,1.0214812359674694,1.27178161227537,
71792.3,29.19999999999709,-0.32,-0.92,0.15,0.03,0.04,-0.06,43.81983340908543,1.0211688355362711,1.3393883447600081,
71792.4,29.29999999998836,-0.30,-0.93,0.17,0.01,0.06,-0.05,45.997881472954816,1.0214812359674694,1.27178161227537,
71792.5,29.39999999999418,-0.30,-0.92,0.18,-0.01,0.06,-0.02,44.19089272689566,1.0170389272790088,1.3094055990013078,
71792.6,29.5,-0.29,-0.92,0.18,-0.02,-0.09,0.05,43.842485102922716,1.0209038555041723,1.2800073165141157,
71792.7,29.59999999999127,-0.29,-0.92,0.17,-0.01,-0.09,0.04,43.89926764764989,1.02212330383748,1.290128102672739,
71792.8,29.69999999999709,-0.29,-0.92,0.17,-0.00,-0.07,0.01,44.01913901929478,1.0238414992035823,1.3083616787203047,
71792.9,29.79999999998836,-0.30,-0.93,0.17,0.01,-0.05,-0.00,43.822575232407324,1.022336717147234,1.3007692981405328,
71793.1,30.0,-0.78,-1.06,0.84,0.72,-1.19,1.35,45.26814663756404,0.6550610314547889,1.6408808522882785,
71793.2,30.09999999999127,-0.85,-1.04,0.77,1.01,-2.56,2.03,45.36092371193514,0.8584463481545574,1.4740867671643965,
71793.3,30.19999999999709,-0.88,-1.03,0.74,1.07,-2.64,2.11,43.273302393045995,6.167951458920328,1.9873786985979442,
71793.4,30.29999999998836,-0.91,-1.01,0.69,1.35,-2.66,2.29,45.73999781372972,0.8498848430495254,1.506913791557018,
71793.5,30.39999999999418,-0.91,-1.00,0.66,2.16,-1.07,2.59,45.36171954412663,0.7763556908099761,1.5544822885847716,
71793.6,30.5,-0.73,-1.11,0.81,2.42,-0.86,3.15,44.83498299319405,0.8732839722954847,1.417413125547771,
71793.7,30.59999999999127,-0.88,-0.95,0.64,2.47,-0.92,3.22,42.97804672155309,5.723088269495568,2.1742615309360347,
71793.8,30.69999999999709,-0.87,-0.94,0.64,-0.17,-0.15,-0.04,44.64327608946279,5.73305916048939,2.1533268131697554,
71793.9,30.79999999998836,-0.75,-1.09,0.82,-0.02,-0.26,-0.11,45.35439669976881,0.6983827396634393,1.60961157181218,
71794.1,31.0,-0.41,0.18,0.82,0.05,-0.06,-0.11,44.95842301504803,5.730959695548302,2.2281308567190212,
71794.2,31.09999999999127,-0.31,0.24,0.75,0.03,-0.46,0.19,43.192588484599995,5.696078038695848,2.341832602052022,
71794.3,31.19999999999709,-0.24,0.35,0.77,-0.05,-0.67,0.26,44.802322484442705,5.69424172871727,2.3324826787976787,
71794.4,31.29999999998836,-0.19,0.45,0.83,-0.15,-0.97,0.21,45.04625844617952,5.728798491763689,2.225506784594072,
71794.5,31.39999999999418,-0.23,0.44,0.90,-0.19,-1.23,0.11,44.7789291966657,5.745118300922497,2.1905732027764624,
71794.6,31.5,-0.29,0.35,0.89,0.09,-0.13,-0.09,43.668082165352764,5.7053606832576875,2.2858098158570943,
71794.7,31.59999999999127,-0.26,0.29,0.87,0.09,-0.10,-0.09,44.34718480354756,5.743152131015725,2.212936406341675,
71794.8,31.69999999999709,-0.20,0.29,0.86,0.09,-0.08,-0.10,43.77802416738334,5.740359314011146,2.2447209499597665,
71794.9,31.79999999998836,-0.08,0.32,0.87,0.08,-0.07,-0.10,43.63236184301739,5.731472025811252,2.2586105447901828,
71796.5,33.39999999999418,-0.15,0.32,0.80,-0.15,0.12,-0.07,43.8081362306136,5.71707468271963,2.226771562099816,
71796.6,33.5,-0.14,0.31,0.80,-0.21,0.15,-0.17,43.582543523755014,6.022965805688121,2.196361537401159,
71796.7,33.59999999999127,-0.32,0.11,0.70,-1.00,0.64,-0.72,45.67603529204346,0.4070109402937513,1.8896859148317542,
71796.8,33.69999999999709,-0.61,-0.87,0.41,-0.77,0.90,-1.00,44.15473813759968,0.9779716571426863,1.3014414744326843,
71796.9,33.79999999998836,-0.37,-0.91,0.28,-0.00,0.02,-0.07,44.51929244720765,0.9705339000107168,1.3074255476974552,
71797.1,34.0,-0.51,-0.83,0.05,0.10,0.18,0.13,45.270880265353796,0.9564522839728231,1.3066399616888267,
71797.2,34.09999999999127,-0.48,-0.98,-0.07,-0.18,-0.23,-0.05,45.15845989402207,0.9568387488244301,1.307572298719084,
71797.3,34.19999999999709,-0.48,-1.07,-0.03,-0.08,-0.60,-0.15,44.32723316427498,1.0130478195138959,1.271731150788174,
71797.4,34.29999999998836,-0.37,-1.05,0.04,0.03,0.01,-0.08,44.239684673378946,0.9733922908433328,1.2649638390092544,
71797.5,34.39999999999418,-0.30,-1.04,0.11,0.02,-0.03,-0.09,43.77024217433575,0.9832626406834852,1.2403964256679745,
71797.6,34.5,-0.35,-1.06,0.12,0.04,0.20,0.14,46.00084890521043,0.9871962105275313,1.2822489402137192,
71797.7,34.59999999999127,-0.36,-1.06,0.10,0.01,0.04,0.02,44.04799427896803,1.0002700961072608,1.2814033022341356,
71797.8,34.69999999999709,-0.36,-1.03,0.10,0.06,0.28,0.05,43.19527867718878,0.9707985875495728,1.2805978761604657,
71797.9,34.79999999998836,-0.36,-0.98,0.12,0.00,-0.13,-0.03,45.25048618523341,0.9919159165637044,1.2666861550618083,
71798.1,35.0,-0.34,-0.92,0.13,-0.00,-0.00,0.01,44.26824821471932,0.9855577833354864,1.2597147688676205,
71798.2,35.09999999999127,-0.33,-0.92,0.13,-0.00,-0.00,0.01,43.829584757330295,0.9856342493637359,1.279681061275329,
71798.3,35.19999999999709,-0.33,-0.93,0.12,-0.00,-0.00,0.01,46.046901090084226,0.9824789609033018,1.2757434213265362,
71798.4,35.29999999998836,-0.34,-0.93,0.12,1.00,-1.31,1.43,44.02451816885677,0.9987254562385729,1.2502851821424044,
71798.5,35.39999999999418,-0.33,-0.93,0.12,2.30,-0.21,2.62,44.02451816885677,0.9987254562385729,1.2502851821424044,
71798.6,35.5,-0.90,-0.68,0.59,2.50,-1.45,3.13,43.94648336329086,0.44478385686723665,1.6919210645410727,
71798.7,35.59999999999127,-0.40,-0.16,0.55,0.01,0.00,0.00,42.810337536627756,0.97867935283076,1.2888727156042465,
71798.8,35.69999999999709,-0.21,0.16,0.49,-0.01,-0.01,-0.02,44.617078568637815,6.0061511956619835,2.1228804350117416,
71798.9,35.79999999998836,-0.34,-0.93,0.12,-0.01,-0.02,-0.02,43.803584328225924,5.799565323023574,2.1837615618134842,
71799.1,36.0,-0.07,0.30,0.78,0.03,-0.01,0.21,44.21163987006137,5.669367031517756,2.238927542731037,
71799.2,36.09999999999127,-0.08,0.31,0.77,0.08,-0.58,0.46,42.27016560175746,5.6135767461728605,2.273546551272991,
71799.3,36.19999999999709,-0.08,0.33,0.80,0.07,-0.40,0.38,43.28814387335174,5.63113739795369,2.2407571071590944,
71799.4,36.29999999998836,-0.06,0.29,0.77,0.05,-0.05,0.26,43.54938116667101,5.675530823892903,2.2503963337821338,
71799.5,36.39999999999418,-0.06,0.36,0.79,0.04,-0.01,0.22,43.03038577563534,5.630255019739251,2.248789349923618,
71799.6,36.5,-0.06,0.36,0.79,-0.03,-0.56,0.23,42.81443448184269,5.6175380218354425,2.256172264680947,
71799.7,36.59999999999127,-0.05,0.36,0.80,0.23,0.05,0.07,43.47968376149946,5.627525321397084,2.2358098895818914,
71799.8,36.69999999999709,-0.04,0.37,0.81,0.10,0.15,0.01,42.71148089214421,5.610860620262285,2.2599634371058164,
71799.9,36.79999999998836,-0.04,0.37,0.82,0.03,0.35,-0.17,42.873634089029586,5.603664818984521,2.2388954970243864,
71800.1,37.0,-0.05,0.32,0.69,-1.11,0.99,-0.87,44.58137391332842,5.610624270747659,2.234960158668816,
71800.2,37.09999999999127,-0.05,0.33,0.70,-0.36,0.05,-0.14,43.27796436987303,5.845001022634219,2.187506343402177,
71800.3,37.19999999999709,-0.07,0.31,0.65,-0.57,0.23,-0.29,44.83256405783634,6.225324739372404,2.1283120093251275,
71800.4,37.29999999998836,-0.10,0.31,0.67,-1.59,1.84,-2.98,43.29000346500332,5.644448903246422,2.2537572282791927,
71800.5,37.39999999999418,-0.11,0.31,0.66,-1.23,2.79,-2.94,44.38722676626689,0.5793456318206408,1.720269008907594,
71800.6,37.5,-0.10,0.31,0.64,-0.70,4.10,-2.26,44.3227278041413,0.874560254361415,1.3895367190284138,
71800.7,37.59999999999127,-0.08,0.31,0.62,-0.77,0.60,-0.45,44.34245933639676,5.656167458411896,2.2113274150184346,
71800.8,37.69999999999709,-0.06,0.29,0.62,-0.86,0.89,-0.55,43.8990136563454,1.1621200813480974,1.2016406123849896,
71800.9,37.79999999998836,-0.06,0.29,0.64,-1.06,0.98,-0.78,43.13725651916218,1.1442312050270116,1.175283144363481,
71801.1,38.0,-0.36,-0.92,0.04,-0.08,-1.05,0.08,45.35082248427254,1.105543582736016,1.1720036095662218,
71801.2,38.09999999999127,-0.37,-0.93,0.04,-0.01,-0.74,0.09,45.07094518645022,1.0604982384495705,1.211681222352539,
71801.3,38.19999999999709,-0.36,-0.92,0.05,0.00,-0.58,0.08,45.404283938853176,1.0245071615132038,1.2028953150105022,
71801.4,38.29999999998836,-0.38,-0.91,0.04,0.00,-0.52,0.09,45.12585733257597,1.1021466309480208,1.1976618486454975,
71801.5,38.39999999999418,-0.37,-0.91,0.04,-0.01,-0.47,0.09,45.77393472272184,1.0888612969123512,1.1792066356117823,
71801.6,38.5,-0.37,-0.91,0.04,-0.03,-0.43,0.09,44.735616682907136,0.9739880101302429,1.2328999044436644,
71801.7,38.59999999999127,-0.36,-0.90,0.04,0.03,0.04,-0.15,45.34481006686432,1.0672251852946113,1.1919672262187908,
71801.8,38.69999999999709,-0.36,-0.90,0.04,0.01,0.08,-0.10,44.681321600865836,0.9909439305816802,1.2357925590713155,
71801.9,38.79999999998836,-0.36,-0.90,0.04,0.02,0.13,-0.03,44.72372748329459,1.0332017934209277,1.2128266875486289,
71802.1,39.0,-0.36,-0.92,0.11,0.01,-0.08,0.04,44.66802323810625,1.0238414992035823,1.2588296509535735,
71802.2,39.09999999999127,-0.35,-0.92,0.11,-0.01,-0.05,-0.01,44.54617604239448,1.022000864109314,1.2579473980321916,
71802.3,39.19999999999709,-0.36,-0.92,0.12,-0.03,-0.01,-0.00,44.40018693654341,1.0197773778128003,1.2568836306538924,
71802.4,39.29999999998836,-0.36,-0.92,0.12,0.00,0.01,0.01,44.397843416093984,1.0409240207761028,1.272692744206315,
71802.5,39.39999999999418,-0.35,-0.92,0.12,0.01,-0.09,0.04,44.09314232394875,1.0313610781749847,1.2481724983343028,
71802.6,39.5,-0.35,-0.91,0.12,0.00,-0.11,0.04,44.7788052542718,1.007417028836416,1.2403303050567358,
71802.7,39.59999999999127,-0.35,-0.92,0.11,-0.01,0.01,-0.02,44.87459080593382,1.0183418241488822,1.2516424197229041,
71802.8,39.69999999999709,-0.36,-0.92,0.12,-0.01,-0.02,-0.02,43.9040510659324,1.0405733934130525,1.2414415331960926,
71802.9,39.79999999998836,-0.36,-0.92,0.12,-0.00,-0.05,-0.00,44.31304322657156,1.0338904580855282,1.2445945585495666,
71803.1,40.0,-0.34,-0.91,0.12,0.02,0.03,0.02,44.48528408361579,1.0189556949600262,1.2593943796567548,
71803.2,40.09999999999127,-0.34,-0.92,0.13,0.03,0.04,0.01,44.302422055684495,1.0197773778128003,1.2637537934628893,
71803.3,40.19999999999709,-0.34,-0.92,0.12,0.03,0.04,-0.00,43.803862843361195,0.9977140473817754,1.2837923165532874,
71803.4,40.29999999998836,-0.35,-0.92,0.12,0.03,0.04,-0.01,44.40162834851893,1.0249824355317474,1.2606804494767303,
71803.5,40.39999999999418,-0.35,-0.92,0.12,1.20,-0.81,2.73,44.362625035044985,0.8600055558829959,1.2875078380017917,
71803.6,40.5,-0.35,-0.92,0.12,0.01,0.02,0.03,44.98130278237837,1.0183389495985697,1.234111908719914,
71803.7,40.59999999999127,-0.36,-0.91,0.12,0.01,0.02,0.03,44.54554747671197,0.24570217146010404,1.7795120331262282,
71803.8,40.69999999999709,-0.36,-0.93,0.11,0.01,0.03,0.03,45.75935969831745,0.9973598495017302,1.2363577982470468,
71803.9,40.79999999998836,-0.34,-0.91,0.12,0.02,0.03,0.02,45.34733840039567,1.001256528938981,1.2557813059782283,
71804.1,41.0,-0.18,0.29,0.65,-0.13,-0.53,0.15,45.17399915880816,5.749632768867974,2.153804802258092,
71804.2,41.09999999999127,-0.14,0.31,0.67,0.04,0.24,0.01,42.99717316289525,5.67486473417366,2.265349354204932,
71804.3,41.19999999999709,-0.14,0.30,0.68,-0.05,0.06,-0.07,44.53450796854053,5.702067000892717,2.250132666452226,
71804.4,41.29999999998836,-0.20,0.27,0.65,0.06,0.04,-0.01,43.46534481630164,5.740523658199908,2.198310618899276,
71804.5,41.39999999999418,-0.19,0.28,0.65,0.09,-0.63,0.41,43.852306666810584,5.708068993286765,2.2060172171146943,
71804.6,41.5,-0.17,0.27,0.76,0.13,-0.60,0.43,43.98184398135212,5.675145144332703,2.2410252511173168,
71804.7,41.59999999999127,-0.18,0.26,0.77,0.11,-0.62,0.42,43.98084128344978,5.698007998264924,2.2083845008399914,
71804.8,41.69999999999709,-0.16,0.26,0.76,-0.11,-0.61,0.17,43.822812552368205,5.735640970466937,2.2201953622050525,
71804.9,41.79999999998836,-0.16,0.26,0.77,-0.11,-0.58,0.16,43.47116400557961,5.748437373417185,2.1908450905431742,
71805.1,42.0,-0.20,0.17,0.65,-0.68,1.27,-1.24,43.44910816115792,5.834979475547845,2.236361837691768,
71805.2,42.09999999999127,-0.18,0.16,0.65,-0.79,1.46,-1.46,45.468592456771745,0.10159080293507473,1.996336046151281,
71805.3,42.19999999999709,-0.25,0.20,0.64,-0.71,1.32,-1.29,43.604128244926535,5.884935489641635,2.1869824751261655,
71805.4,42.29999999998836,-0.28,0.17,0.66,-1.30,2.43,-2.99,43.68463002017987,0.6295368150849561,1.5749167808141273,
71805.5,42.39999999999418,-0.34,0.14,0.67,-0.29,2.80,-2.44,44.454230394867935,1.0170389272790088,1.2881076831169647,
71805.6,42.5,-0.42,0.09,0.68,-0.34,-0.60,-1.07,44.525819475895105,5.953859140131748,2.2037971849833675,
71805.7,42.59999999999127,-0.45,0.07,0.68,-0.86,1.53,-1.58,45.04662140494002,1.268313705234128,1.172771383878913,
71805.8,42.69999999999709,-0.52,0.01,0.65,-1.05,1.65,-1.94,44.575530282880536,1.2029932764344144,1.1719780317164825,
71805.9,42.79999999998836,-0.52,-0.01,0.63,-1.25,1.64,-2.08,43.57621828474793,5.994393640170917,2.1420200256215987,
71806.1,43.0,-0.35,-0.92,0.07,-0.02,-0.51,0.45,44.63016916839997,1.1035439836196514,1.2380024909498577,
71806.2,43.09999999999127,-0.34,-0.93,0.08,-0.04,-0.54,0.45,45.629528816326825,1.0238630275828804,1.2793749655806486,
71806.3,43.19999999999709,-0.35,-0.93,0.09,-0.04,-0.56,0.45,45.15801811417326,1.1044270663963494,1.2408698474819808,
71806.4,43.29999999998836,-0.34,-0.92,0.08,-0.05,-0.58,0.45,45.87695281947134,1.0892823456359118,1.2182683667698815,
71806.5,43.39999999999418,-0.34,-0.92,0.16,-0.04,0.07,-0.24,44.27653441722828,0.955466715837698,1.2890585054485186,
71806.6,43.5,-0.33,-0.92,0.09,0.06,0.18,-0.26,45.63641090182268,1.0888136191025097,1.2247269627483066,
71806.7,43.59999999999127,-0.33,-0.92,0.10,0.09,0.19,-0.18,44.89692194349185,1.0871724059151577,1.2452317540409261,
71806.8,43.69999999999709,-0.32,-0.91,0.10,-0.10,-0.70,0.41,45.62260295073047,1.0376502787375064,1.2916643515211987,
71806.9,43.79999999998836,-0.35,-0.93,0.09,-0.11,-0.72,0.40,44.89433037700863,1.0658161255002183,1.2527258892075148,
71807.1,44.0,-0.34,-0.93,0.15,-0.02,-0.11,0.14,44.47885565074713,1.056113556986806,1.2727819761609585,
71807.2,44.09999999999127,-0.34,-0.93,0.14,-0.02,-0.12,0.14,45.07324372618417,1.077184654071863,1.276830063972295,
71807.3,44.19999999999709,-0.34,-0.92,0.14,-0.03,-0.13,0.15,44.02489068697389,1.0139438217426004,1.3048671703865131,
71807.4,44.29999999998836,-0.33,-0.92,0.15,-0.03,-0.14,0.15,44.245198609566664,1.0552884806332985,1.2711594618576396,
71807.5,44.39999999999418,-0.33,-0.92,0.15,-0.03,-0.14,0.15,43.85497121193902,0.9813503441158405,1.3014468948532092,
71807.6,44.5,-0.34,-0.93,0.15,-0.03,-0.15,0.15,43.71219623857854,1.040202600831149,1.2673902340739245,
71807.7,44.59999999999127,-0.35,-0.93,0.15,-0.02,-0.10,0.13,44.82392664637939,1.0540736109546935,1.2839960700394188,
71807.8,44.69999999999709,-0.33,-0.93,0.15,-0.02,-0.10,0.14,45.1879652119898,1.0583943162833562,1.2889064711245015,
71807.9,44.79999999998836,-0.33,-0.93,0.16,-0.04,-0.00,-0.03,44.81781900092864,1.0464612302106178,1.328115039531928,
71808.1,45.0,-0.33,-0.93,0.16,0.00,-0.04,0.03,44.897877455398714,1.0080140612882782,1.306007954640577,
71808.2,45.09999999999127,-0.34,-0.93,0.17,0.00,-0.04,0.03,44.3800011266336,1.0195399705177732,1.2972301248659552,
71808.3,45.19999999999709,-0.34,-0.93,0.16,-0.01,-0.03,0.01,45.478102423034315,1.020273795988293,1.3121962089069485,
71808.4,45.29999999998836,-0.33,-0.93,0.17,-0.01,-0.03,0.02,43.92363372946278,1.0183389495985697,1.3115480534798003,
71808.5,45.39999999999418,-0.33,-0.93,0.16,-0.01,-0.04,0.02,44.47614304320913,1.0049500396508178,1.2765244159305964,
71808.6,45.5,-0.33,-0.93,0.17,-0.01,-0.03,0.02,45.626625998423336,1.0279288034370464,1.3144168844630268,
71808.7,45.59999999999127,-0.32,-0.92,0.15,-0.01,-0.03,0.03,44.37151000360479,1.0560183865703376,1.3104943635228226,
71808.8,45.69999999999709,-0.31,-0.92,0.16,-0.00,-0.04,0.03,44.8288946997358,0.6614934517153778,1.6071648206202278,
71808.9,45.79999999998836,-0.33,-0.92,0.18,3.19,-1.75,2.60,44.36308938746264,1.0534739715268344,1.3085771497568572,
71809.1,46.0,-0.34,-0.12,0.60,2.46,-1.79,2.07,44.081763803187364,5.893354033439731,2.2729262773314938,
71809.2,46.09999999999127,-0.25,0.03,0.60,2.20,-1.58,1.82,44.51968777967788,5.716273132150002,2.2885398374421975,
71809.3,46.19999999999709,-0.23,0.06,0.57,1.92,-1.08,1.49,45.20094357422199,6.131239693870476,2.192881776009095,
71809.4,46.29999999998836,-0.20,0.09,0.53,1.81,-1.01,1.43,43.68422255231287,6.282908605471097,2.167306643785754,
71809.5,46.39999999999418,-0.17,0.11,0.55,1.68,-0.98,1.36,42.71078318176804,5.591153209943727,2.3691563944630833,
71809.6,46.5,-0.12,0.14,0.52,1.51,-0.96,1.23,43.68422255231287,6.282908605471097,2.167306643785754,
71809.7,46.59999999999127,-0.10,0.16,0.52,1.45,-0.96,1.18,44.476108193051246,5.946839259408022,2.2555398930151394,
71809.8,46.69999999999709,-0.09,0.18,0.54,-0.22,-0.01,-0.20,44.50912378378168,5.648144992581756,2.364723939888814,
71809.9,46.79999999998836,-0.36,-0.15,0.59,-0.16,-0.07,-0.18,44.466425536577596,5.944166581455422,2.256008121144341,
71810.1,47.0,-0.05,0.32,0.91,0.17,0.89,-0.03,44.187738118170294,5.671800372987507,2.361474846089841,
71810.2,47.09999999999127,-0.03,0.32,0.88,-0.14,0.21,-0.33,43.933795647542226,5.666665727017517,2.3728837149965742,
71810.3,47.19999999999709,-0.02,0.31,0.87,0.11,0.26,0.03,43.58873593028364,5.738942841288738,2.394849829378268,
71810.4,47.29999999998836,-0.06,0.32,0.93,0.13,0.26,0.04,43.39508151853156,5.7682650609779085,2.407906107889884,
71810.5,47.39999999999418,-0.05,0.32,0.93,0.17,0.30,0.07,42.666961457314954,6.199027905277741,2.063449807949779,
71810.6,47.5,0.00,0.27,0.82,0.15,0.54,0.08,43.91127987203288,5.694101330709379,2.364929581151457,
71810.7,47.59999999999127,-0.05,0.32,0.93,0.18,0.74,0.05,45.444774177016214,0.5691840912312384,1.789276927243136,
71810.8,47.69999999999709,-0.05,0.22,0.76,0.18,0.84,0.01,44.74752507122601,0.8515246775353277,1.5985109043601604,
71810.9,47.79999999998836,-0.06,0.21,0.77,-0.76,2.14,-1.70,43.867197311886706,5.686995647970441,2.351409065757624,
71811.1,48.0,-0.52,-0.90,0.24,-0.20,-0.09,0.05,44.22520661342352,1.281905227818986,1.1272259839497378,
71811.2,48.09999999999127,-0.57,-0.94,0.22,-0.50,0.94,-0.36,43.39657359746274,1.238785303778953,1.195424161803114,
71811.3,48.19999999999709,-0.57,-0.92,0.23,-0.48,0.88,-0.38,42.96352522780224,1.3137187417495326,1.1543323700063544,
71811.4,48.29999999998836,-0.57,-0.93,0.19,-0.32,0.46,-0.15,43.39657359746274,1.238785303778953,1.195424161803114,
71811.5,48.39999999999418,-0.52,-0.90,0.23,-0.31,0.37,-0.07,43.82500884198428,1.015829518145211,1.2192777229814933,
71811.6,48.5,-0.52,-0.92,0.17,-0.26,0.21,-0.03,42.53920662165669,1.3146152283134573,1.1457911385107928,
71811.7,48.59999999999127,-0.53,-0.93,0.16,-0.22,0.04,0.00,44.069955752190175,1.2943573871888068,1.1303230986926427,
71811.8,48.69999999999709,-0.54,-0.94,0.17,-0.18,-0.17,-0.25,42.711644782190255,0.9012465206781597,1.234116794238149,
71811.9,48.79999999998836,-0.51,-0.93,0.17,0.04,0.47,-0.36,44.95782245616441,1.283170478174795,1.121910179340492,
71812.1,49.0,-0.36,-0.92,0.13,0.13,-0.01,-0.24,44.54318129635556,1.006489745210102,1.2172990697353414,
71812.2,49.09999999999127,-0.36,-0.92,0.14,0.11,0.16,-0.11,42.32898534101662,1.0761027955500673,1.2110843509228733,
71812.3,49.19999999999709,-0.37,-0.93,0.14,-0.00,0.09,0.12,43.629877377778634,1.0122230436270976,1.2034312665645965,
71812.4,49.29999999998836,-0.37,-0.93,0.13,-0.08,-0.09,0.15,42.192233882552365,1.0223319831562563,1.1800530426932192,
71812.5,49.39999999999418,-0.36,-0.91,0.13,0.09,-0.07,-0.33,43.77260444616015,1.0397130007367885,1.222729800157724,
71812.6,49.5,-0.36,-0.91,0.13,0.12,-0.13,-0.32,43.262156673009265,1.0352366961363293,1.2169672622887113,
71812.7,49.59999999999127,-0.36,-0.92,0.15,0.09,-0.03,-0.30,43.66114977872204,1.0397130007367885,1.229834830874891,
71812.8,49.69999999999709,-0.36,-0.92,0.14,0.13,-0.07,-0.28,44.798082548252,1.028946329277971,1.2129709226757697,
71812.9,49.79999999998836,-0.36,-0.93,0.14,0.13,-0.02,-0.25,43.36773916173173,0.9865708535378839,1.247443177323536,
71813.1,50.0,-0.34,-0.92,0.15,0.01,-0.01,-0.12,44.032853643614786,1.002164671641158,1.2316245966837174,
71813.2,50.09999999999127,-0.34,-0.92,0.14,-0.04,-0.02,0.04,43.607596815233926,1.0101332971103345,1.2293990563085568,
71813.3,50.19999999999709,-0.34,-0.92,0.14,-0.01,-0.04,0.03,44.2117597478318,1.0010714004552017,1.234250276545451,
71813.4,50.29999999998836,-0.34,-0.92,0.14,0.01,-0.02,-0.13,43.60997477642013,1.0046278568761682,1.2252784595655635,
71813.5,50.39999999999418,-0.34,-0.92,0.15,0.01,-0.02,-0.13,44.52791708580135,0.9755698389259588,1.2483583292998246,
71813.6,50.5,-0.35,-0.93,0.14,-0.01,0.01,-0.08,43.47372194786179,0.9865708535378839,1.2402457133185312,
71813.7,50.59999999999127,-0.34,-0.92,0.15,-0.02,0.00,-0.05,44.282969638451306,1.017118705988509,1.2331379583323367,
71813.8,50.69999999999709,-0.34,-0.93,0.15,-0.03,-0.00,-0.04,43.408395501331306,1.0071291342533553,1.2076353445763184,
71813.9,50.79999999998836,-0.34,-0.93,0.15,-0.03,-0.00,-0.04,43.11742803090185,1.0424742003550256,1.23347913963324,
71814.1,51.0,-0.29,-0.92,0.11,0.02,0.54,-0.14,44.70432753101203,1.0242923760371818,1.2030932148735547,
71814.2,51.09999999999127,-0.30,-0.92,0.11,0.03,-0.20,0.04,43.667641337722834,1.0054554240148712,1.2116033038348089,
71814.3,51.19999999999709,-0.29,-0.91,0.08,-0.26,-0.29,-0.02,42.955763292019384,0.9803208611358161,1.2225165934134596,
71814.4,51.29999999998836,-0.29,-0.92,0.16,-0.26,-0.29,-0.04,43.681128648422074,0.9922928648622984,1.229997113302423,
71814.5,51.39999999999418,-0.29,-0.93,0.19,-0.23,-0.25,-0.10,42.796552431241466,0.6194531984990734,1.717596487894886,
71814.6,51.5,-0.28,-0.93,0.23,-0.19,-0.16,-0.11,43.78743883809602,0.983809226249412,1.20994667618035,
71814.7,51.59999999999127,-0.28,-0.94,0.25,-0.14,-0.02,-0.13,43.90471728641468,0.9761983201387963,1.191903643847323,
71814.8,51.69999999999709,-0.29,-0.94,0.27,-0.10,0.15,-0.14,43.73709066684705,5.898960306868495,2.1963475495790687,
71814.9,51.79999999998836,-0.28,-0.93,0.28,-0.05,0.35,-0.14,43.63398675344714,0.9806198136284049,1.2100892552565023,
71815.1,52.0,-0.13,0.28,0.82,-0.02,0.00,0.02,41.474659733384186,5.646110150414246,2.2093398689413837,
71815.2,52.09999999999127,-0.13,0.27,0.81,-0.08,-0.03,-0.11,43.47376680252126,5.65682537652491,2.2055774575487908,
71815.3,52.19999999999709,-0.11,0.31,0.81,0.09,-0.26,0.22,44.1609454156045,5.658864498209138,2.189431944459699,
71815.4,52.29999999998836,-0.10,0.32,0.83,0.07,-0.26,0.21,43.783596243342096,5.619786033634478,2.2569559432796167,
71815.5,52.39999999999418,-0.10,0.33,0.85,0.02,-0.13,0.14,44.480219199100176,5.624846765332785,2.2583701591872414,
71815.6,52.5,-0.09,0.33,0.88,0.01,-0.08,0.12,45.25367830353683,5.642018106436915,2.1901454437348287,
71815.7,52.59999999999127,-0.06,0.34,0.84,0.00,-0.05,0.11,43.29975635035375,5.610748716561372,2.2171916533680402,
71815.8,52.69999999999709,-0.05,0.34,0.84,-0.01,-0.04,0.09,43.8525495267949,5.642961979600334,2.1537367362340785,
71815.9,52.79999999998836,-0.04,0.34,0.84,-0.03,-0.03,0.06,43.85167499651524,5.628861493649797,2.2131290922571,
71816.1,53.0,-0.29,0.13,0.72,-0.87,0.77,-0.92,42.8871274393611,6.032748477231589,2.145698749423923,
71816.2,53.09999999999127,-0.27,0.15,0.71,-1.09,0.85,-1.24,43.621482093115546,0.02093133121089932,2.026051617371139,
71816.3,53.19999999999709,-0.32,0.08,0.72,-1.14,0.83,-1.29,43.25952496271775,5.856898885914697,2.141778890203841,
71816.4,53.29999999998836,-0.28,0.14,0.71,-1.60,1.35,-2.04,43.924760670947315,5.9099233573383545,2.1436868003533234,
71816.5,53.39999999999418,-0.34,0.04,0.73,-1.09,1.33,-1.33,43.4826609121383,0.7498619228504255,1.5045145079029312,
71816.6,53.5,-0.36,0.03,0.74,-1.04,1.55,-0.60,43.631815226964825,5.951912865048113,2.135222118720951,
71816.7,53.59999999999127,-0.36,0.02,0.74,-0.87,0.44,-0.54,43.37085081019278,5.996429898879241,2.1251459242552775,
71816.8,53.69999999999709,-0.36,0.01,0.75,-1.18,0.81,-1.34,43.890064935016895,0.9684195843407447,1.1651395319074114,
71816.9,53.79999999998836,-0.37,0.00,0.76,-0.84,0.76,-0.87,43.04559907818685,6.020559057948366,2.1388994498506264,
71817.1,54.0,-0.36,-0.89,0.04,-0.15,-0.11,-0.11,43.06146072766227,0.9700979968668403,1.163698842463165,
71817.2,54.09999999999127,-0.36,-0.89,0.06,-0.16,-0.09,-0.12,43.0090571856673,0.9620385812890427,1.1918711742872308,
71817.3,54.19999999999709,-0.37,-0.90,0.06,-0.09,-1.12,0.13,42.59842367975604,0.9583260332503424,1.1839777099096978,
71817.4,54.29999999998836,-0.39,-0.91,0.07,0.17,0.29,0.09,42.93491819020971,0.9793200676342183,1.1939404144126202,
71817.5,54.39999999999418,-0.39,-0.92,0.07,0.31,0.32,0.08,43.1857152308492,0.974495722988162,1.235260093451831,
71817.6,54.5,-0.39,-0.93,0.09,-0.17,-0.01,-0.13,42.90369098341074,0.9866160689380478,1.1949055235372723,
71817.7,54.59999999999127,-0.40,-0.94,0.12,0.85,-0.73,0.98,42.825683882455394,0.8609702013121897,1.3293483522103795,
71817.8,54.69999999999709,-0.40,-0.94,0.14,1.13,-0.34,0.66,44.1039590059668,0.7621615459138753,1.4580963465447765,
71817.9,54.79999999998836,-0.36,-0.88,0.03,1.07,-0.19,0.72,43.58677092880362,1.0095545209711565,1.1688897190844179,
71818.1,55.0,-0.62,-0.61,0.64,1.31,-0.26,1.01,43.278912879137806,0.49813825182016375,1.698456527384915,
71818.2,55.09999999999127,-0.57,-0.57,0.62,1.38,-0.09,0.96,43.79483302856628,0.45924927104244656,1.794369889477688,
71818.3,55.19999999999709,-0.56,-0.60,0.68,1.35,-0.07,0.90,44.369560511684135,0.5903236582842007,1.6549623052527744,
71818.4,55.29999999998836,-0.60,-0.61,0.66,0.55,-0.88,0.36,44.21251519649159,0.6022056582296238,1.6305434667113377,
71818.5,55.39999999999418,-0.49,-0.48,0.52,1.35,-0.23,1.01,42.0685250513968,0.31510330272101666,2.061374647019237,
71818.6,55.5,-0.48,-0.44,0.54,1.38,-0.19,0.99,43.50969891874684,0.5725719272418703,1.664475647261598,
71818.7,55.59999999999127,-0.52,-0.44,0.52,0.54,-0.25,0.57,44.44179226808928,0.5347172462371774,1.6726785606328671,
71818.8,55.69999999999709,-0.57,-0.45,0.57,1.30,-0.07,0.81,42.44196508174427,0.06923224078636658,2.2523969296788904,
71818.9,55.79999999998836,-0.63,-0.47,0.65,1.15,-0.33,0.48,44.04122954686892,0.5226314080030451,1.681144217817443,
71819.1,56.0,-0.23,0.24,0.87,0.11,-0.29,-0.25,42.633612326426196,6.248902142806357,2.309928617340868,
71819.2,56.09999999999127,-0.24,0.18,0.81,0.12,-0.42,-0.24,41.996024811879515,0.005418165740462906,2.3617435852870248,
71819.3,56.19999999999709,-0.28,0.15,0.83,0.07,-0.41,-0.25,41.94889390675277,6.261958399121616,2.2725361666335404,
71819.4,56.29999999998836,-0.32,0.09,0.91,0.00,-0.49,-0.21,43.452348613164745,6.229347079123212,2.333808826731844,
71819.5,56.39999999999418,-0.29,0.22,0.86,0.00,-0.52,-0.15,42.499667057519396,6.265247237616957,2.276994964714311,
71819.6,56.5,-0.17,0.17,0.97,0.11,-0.46,-0.23,41.919428669770774,6.251019748698123,2.283488985851935,
71819.7,56.59999999999127,-0.26,0.17,0.99,0.10,-0.49,-0.22,41.919428669770774,6.251019748698123,2.283488985851935,
71819.8,56.69999999999709,-0.24,0.17,0.95,-1.10,-0.24,0.82,42.28107614524493,6.025301808918254,2.221452104362162,
71819.9,56.79999999998836,-0.22,0.34,0.91,-0.56,0.06,1.49,44.0479034688372,6.242751857043127,2.2810385061047556,
71820.1,57.0,-0.32,0.49,0.99,0.56,0.22,1.36,44.80682648882868,5.82765529642471,2.3299227437913403,
71820.2,57.09999999999127,-0.18,0.44,0.70,-0.36,1.14,2.68,43.081667795014624,5.5562537363839235,2.318700350341143,
71820.3,57.19999999999709,-0.11,0.46,0.74,0.25,1.39,2.47,43.23142491290335,5.769620601447742,2.292762881142337,
71820.4,57.29999999998836,-0.12,0.43,0.77,-0.07,-0.19,2.06,43.026489515181225,5.238277011121293,2.0817405373038262,
71820.5,57.39999999999418,-0.15,0.43,0.77,0.13,-0.21,1.88,43.52006778487368,5.166776536250135,2.024378902459752,
71820.6,57.5,-0.18,0.41,0.78,-0.33,0.57,0.83,42.7309559921142,5.73742674467344,2.2794553471521892,
71820.7,57.59999999999127,-0.09,0.42,0.89,0.01,0.37,0.57,42.91622070965708,5.1104705089720985,2.0831815211938745,
71820.8,57.69999999999709,-0.05,0.47,0.68,0.02,0.39,0.44,43.7342954670588,5.8370198672378715,2.29543709420051,
71820.9,57.79999999998836,-0.08,0.59,0.89,-0.09,0.26,0.37,43.35206684807542,5.698255677313788,2.294309061641539,
