Clock Time (s),Elapsed Time (s),ax,ay,az,gx,gy,gz,mr,mtheta,mphi,
40122.4,0.0,0.09,-0.01,0.93,-0.07,-0.00,-0.09,41.21901017734414,0.517265743969889,2.4045137321944416,
40122.5,0.09999999999854481,0.03,0.01,0.92,-0.00,0.10,-0.17,42.08065945300763,0.5260371766655731,2.393688524240716,
40122.6,0.19999999999708962,0.04,-0.01,0.92,-0.04,-0.01,-0.05,42.19249814836756,0.5319303449744482,2.367500572176121,
40122.7,0.2999999999956344,0.03,-0.01,0.93,-0.01,0.01,0.01,41.52741985724613,0.4938475646892855,2.37252784762251,
40122.8,0.4000000000014552,0.04,-0.01,0.93,0.01,0.01,0.04,40.83900831313121,0.5319467224179428,2.4085800681214176,
40122.9,0.5,0.05,-0.01,0.93,-0.00,0.01,0.03,43.70721221949531,0.507675908575298,2.3762751590290696,
40123.0,0.5999999999985448,0.06,-0.01,0.91,-0.01,0.03,0.01,42.404463208487854,0.5504978074436564,2.3742176667978026,
40123.1,0.6999999999970896,0.06,-0.01,0.93,-0.00,-0.00,-0.02,41.75534456809092,0.542826813867791,2.390471805327554,
40123.2,0.7999999999956344,0.04,-0.01,0.91,-0.00,-0.02,-0.02,41.649986794715794,0.48868462537930396,2.3674293432048037,
40123.3,0.9000000000014552,0.04,0.00,0.92,0.00,0.00,-0.02,42.66405630035663,0.5029607767274279,2.3679301547547738,
40123.4,1.0,0.04,-0.00,0.92,-0.00,0.01,0.01,43.00643323969101,0.5366772182413886,2.3764556012721645,
40123.5,1.0999999999985448,0.06,-0.02,0.87,0.10,0.05,0.06,41.88967653253006,0.5334266072652508,2.3708026792134955,
40123.6,1.1999999999970896,0.08,-0.01,0.92,0.02,-0.00,0.02,41.08484513783641,0.5319467224179428,2.4139545038670307,
40123.7,1.2999999999956344,0.04,0.00,0.91,0.00,-0.00,0.01,40.9852754047109,0.4817762885818203,2.3686611287544754,
40123.8,1.4000000000014552,0.04,0.01,0.91,0.00,0.05,0.01,40.25882015161398,0.5195904599182339,2.3754454994391176,
40123.9,1.5,0.03,0.00,0.91,-0.00,0.00,0.02,41.13542147590079,0.45644773341293643,2.394509901964699,
40124.0,1.5999999999985448,0.04,-0.00,0.92,-0.02,0.01,0.01,41.51116596772488,0.519146114246523,2.3967932227148934,
40124.1,1.6999999999970896,0.05,-0.00,0.93,0.01,-0.00,-0.02,41.179454828834245,0.4834238810708831,2.3697396431996594,
40124.2,1.7999999999956344,0.04,-0.00,0.91,-0.00,-0.01,-0.00,41.88388831042314,0.48767399247137166,2.381629025567822,
40124.3,1.9000000000014552,0.04,-0.00,0.92,-0.00,0.02,-0.02,41.120331953913016,0.4843751435506959,2.4192169918057322,
40124.4,2.0,0.05,0.00,0.92,-0.02,-0.01,-0.01,42.712118889139646,0.4883244936290152,2.389466156304569,
40124.5,2.099999999998545,0.03,-0.00,0.92,-0.00,0.00,-0.01,41.12953561614816,0.5025807721052893,2.38010560419201,
40124.6,2.1999999999970896,0.05,0.01,0.92,-0.01,0.03,0.02,41.179454828834245,0.4834238810708831,2.3697396431996594,
40124.7,2.2999999999956344,0.05,0.00,0.91,-0.02,-0.03,0.02,41.184231205644714,0.505646244276489,2.368576773198158,
40124.8,2.400000000001455,0.04,-0.01,0.91,-0.03,0.00,-0.01,42.041353451096214,0.5201327725853561,2.383213785157971,
40124.9,2.5,0.04,-0.01,0.92,-0.01,0.01,-0.00,40.53504409766936,0.5218342798144103,2.374057325810223,
40125.0,2.599999999998545,0.06,0.01,0.92,0.01,-0.02,-0.01,41.12904326628569,0.5112002611442554,2.394677358618983,
40125.1,2.6999999999970896,0.04,-0.01,0.91,-0.01,-0.02,0.01,42.18867857612988,0.491574155856073,2.368271615954271,
40125.2,2.7999999999956344,0.05,-0.01,0.92,-0.02,-0.01,0.03,39.84195276338749,0.4786155766766361,2.3801771327409904,
40125.3,2.900000000001455,0.06,-0.01,0.93,0.01,-0.02,-0.02,40.871547560619724,0.5089537898332245,2.3953599706119357,
40125.4,3.0,0.03,-0.00,0.91,0.02,0.04,-0.06,40.980183015696745,0.5210799128793427,2.40331048898853,
40125.5,3.099999999998545,0.03,0.00,0.92,0.02,0.02,-0.03,40.46850380233992,0.5293444825424634,2.365831895821777,
40125.6,3.1999999999970896,0.06,0.01,0.92,0.04,-0.00,-0.01,41.16735599962669,0.5000361786234566,2.4008437148886994,
40125.7,3.2999999999956344,0.04,0.00,0.91,-0.00,-0.00,0.02,41.62310175851867,0.453913264258047,2.3878934990753615,
40125.8,3.400000000001455,0.05,-0.01,0.93,-0.03,-0.00,0.01,40.30179152345463,0.533985207615998,2.364734559549053,
40125.9,3.5,0.05,0.00,0.93,-0.02,-0.01,-0.04,41.82336906563124,0.46726914137985154,2.3540466374526483,
40126.0,3.599999999998545,0.04,0.01,0.91,0.00,0.04,-0.06,40.47292181199672,0.48775110098523555,2.3958219994110452,
40126.1,3.6999999999970896,0.05,0.02,0.93,0.01,-0.04,-0.00,40.774728693150124,0.5063689578828934,2.386053321320805,
40126.2,3.7999999999956344,0.07,0.01,0.91,0.02,-0.03,0.02,42.73595792772171,0.5195904599182339,2.429823941342859,
40126.3,3.900000000001455,0.06,0.01,0.92,-0.03,-0.04,0.00,42.310094540192175,0.48776167230464157,2.3885523739157852,
40126.4,4.0,0.06,0.02,0.91,-0.01,0.01,-0.02,40.8941475030352,0.5126296188107337,2.4133077651107504,
40126.5,4.099999999998545,0.06,0.01,0.92,-0.03,-0.01,-0.00,41.99810710020156,0.5385881086866035,2.3784271750796755,
40126.6,4.19999999999709,0.06,-0.00,0.92,-0.02,0.02,-0.01,41.43569837712404,0.5008752200590226,2.3758617512096682,
40126.7,4.299999999995634,0.05,0.00,0.92,-0.01,0.04,-0.01,41.84463286970027,0.5300992559934441,2.405821949890802,
40126.8,4.400000000001455,0.04,0.01,0.92,0.02,0.01,0.00,42.0754714768593,0.5366805236042691,2.3994305780967333,
40126.9,4.5,0.04,-0.01,0.92,0.02,0.00,0.03,41.90054534251315,0.5335711152063006,2.3920072046556706,
40127.0,4.599999999998545,0.07,0.02,0.89,0.04,0.01,-0.01,40.64640943552087,0.45644773341293643,2.3833090252625904,
40127.1,4.69999999999709,0.08,0.01,0.91,-0.03,0.02,0.04,40.93229165341222,0.48985096138006545,2.399883738635929,
40127.2,4.799999999995634,0.05,0.01,0.93,-0.02,0.01,0.00,40.660478354293865,0.5362849974485522,2.389040941516069,
40127.3,4.900000000001455,0.05,0.01,0.92,0.01,-0.01,0.02,42.16778984011375,0.5064349344830966,2.3742293573854774,
40127.4,5.0,0.06,0.00,0.91,0.01,0.03,0.00,42.89307753006305,0.5124270507627452,2.399686454558837,
40127.5,5.099999999998545,0.06,0.01,0.90,-0.03,0.06,-0.00,42.134859676994296,0.5075753760776959,2.3982455383228034,
40127.6,5.19999999999709,0.06,0.01,0.92,-0.06,0.03,-0.07,41.99625816665099,0.506998727228335,2.372634366065177,
40127.7,5.299999999995634,0.10,0.01,0.91,-0.12,0.07,-0.16,41.55869824717805,0.530320048063009,2.384978244882488,
40127.8,5.400000000001455,0.08,-0.03,0.94,-0.00,0.21,-0.29,40.66468000611833,0.5112991392926682,2.382834795288991,
40127.9,5.5,-0.01,-0.04,0.95,-0.07,-0.09,-0.30,40.6400356791182,0.5304794698029118,2.33529406602521,
40128.0,5.599999999998545,0.04,-0.03,0.95,0.07,-0.20,-0.28,39.68955278155701,0.5388925974078593,2.355668989743468,
40128.1,5.69999999999709,0.02,-0.04,0.91,0.11,0.01,-0.33,39.64438674011745,0.5995363468342991,2.361100283014693,
40128.2,5.799999999995634,0.01,-0.05,0.88,-0.04,-0.05,-0.34,39.9321474503939,0.5510043342957821,2.357743618821111,
40128.3,5.900000000001455,0.07,-0.06,0.89,-0.01,-0.21,-0.31,41.42903571168414,0.5689093511816915,2.3594511631739614,
40128.4,6.0,0.04,-0.07,0.91,0.04,-0.10,-0.15,39.64387972941095,0.5932244881983442,2.3708405494627023,
40128.5,6.099999999998545,-0.01,-0.04,0.85,0.05,0.10,0.09,40.99527899648934,0.5376591559639803,2.411642675087382,
40128.6,6.19999999999709,0.07,0.15,0.80,-0.15,-0.45,0.20,41.68256470036363,0.48985096138006545,2.4162535295584506,
40128.7,6.299999999995634,0.06,0.07,0.90,-0.19,-0.13,-0.09,40.01519836262217,0.4564547205489339,2.430596388353861,
40128.8,6.400000000001455,0.09,0.03,0.93,-0.20,-0.14,-0.19,39.907068296230435,0.5429742883118216,2.448129075764158,
40128.9,6.5,0.13,0.06,0.97,-0.08,-0.15,-0.61,38.86307373330113,0.5933265224353564,2.4600037497423575,
40129.0,6.599999999998545,0.05,0.13,0.97,0.03,0.21,-0.91,40.03594509937289,0.5711043198201318,2.4423226644627087,
40129.1,6.69999999999709,0.01,0.13,0.88,0.24,-0.11,-1.11,41.08119521143463,0.6712759940255478,2.4518332994614007,
40129.2,6.799999999995634,-0.00,0.05,0.83,0.17,-0.36,-1.32,40.451156967384755,0.7067593360753939,2.4575252443305184,
40129.3,6.900000000001455,0.09,-0.03,0.94,-0.55,0.27,-1.62,38.9606224282929,0.938069599545899,2.467544952756536,
40129.4,7.0,0.07,-0.02,0.91,-0.42,0.40,-1.04,39.715514600719956,1.0381492070467633,2.433962581173558,
40129.5,7.099999999998545,0.14,-0.01,0.93,-0.38,0.02,-0.81,39.37787576799947,1.0645746946659413,2.4004889540425394,
40129.6,7.19999999999709,0.08,0.03,0.93,-0.20,0.12,-0.72,40.35686558691098,1.1739459716419427,2.3996736017670237,
40129.7,7.299999999995634,0.03,0.02,0.97,-0.05,-0.05,-0.48,40.83546252952206,1.1733941766895348,2.366462702575267,
40129.8,7.400000000001455,0.03,0.03,0.92,0.04,-0.08,-0.22,41.10404967883335,1.2412057440103148,2.343036128798176,
40129.9,7.5,0.04,0.01,0.91,0.08,-0.10,-0.06,39.91939503549622,1.2294404415410498,2.3843231730876586,
40130.0,7.599999999998545,0.04,0.00,0.95,0.06,-0.09,0.03,41.30079660248698,1.2070856825943492,2.3901965396639655,
40130.1,7.69999999999709,-0.07,0.04,0.92,0.27,0.14,0.04,39.4941856480166,1.251868630108412,2.3928023191930925,
40130.2,7.799999999995634,-0.05,0.08,0.88,0.26,0.01,0.08,39.73595978455786,1.1499407298293067,2.4203065516060294,
40130.3,7.900000000001455,-0.07,0.02,0.87,-0.03,0.03,-0.10,38.82480392738642,1.223808413412724,2.460810312575803,
40130.4,8.0,-0.02,0.01,0.94,-0.17,-0.20,-0.24,39.83195325363796,1.2234358542475838,2.448827157176572,
40130.5,8.099999999998545,-0.04,0.01,0.86,-0.11,0.11,-0.50,38.744647372250014,1.2709288779301904,2.449905374240014,
40130.6,8.19999999999709,0.04,0.06,0.91,-0.15,-0.03,-0.17,40.29935731497464,1.3392889289846481,2.4368815726492077,
40130.7,8.299999999995634,0.08,0.04,0.96,-0.15,-0.00,-0.20,39.276799767801855,1.331564726831236,2.3980245467670773,
40130.8,8.400000000001455,0.06,0.02,0.95,-0.02,0.15,-0.05,40.60918861538605,1.3768933484410861,2.3782029083058536,
40130.9,8.5,0.03,0.02,0.94,-0.03,-0.03,-0.11,40.021635398868945,1.3677087756754223,2.393670274090571,
40131.0,8.599999999998545,-0.01,-0.00,0.92,-0.03,-0.02,-0.11,39.69516217374606,1.4393002419352787,2.396242191536201,
40131.1,8.69999999999709,-0.02,0.00,0.91,-0.05,-0.06,-0.03,39.15627535912986,1.4147502920552357,2.4089825725772114,
40131.2,8.799999999995634,0.01,0.04,0.92,-0.03,0.02,0.09,40.25455626385664,1.4075808631406401,2.370195665643693,
40131.3,8.900000000001455,-0.01,0.01,0.95,0.03,-0.15,0.08,39.55015676327971,1.3490153577722972,2.4195231229823593,
40131.4,9.0,0.04,0.04,0.93,0.07,-0.05,0.14,39.79506878998954,1.4070580856805375,2.4024350138851402,
40131.5,9.099999999998545,0.03,0.03,0.98,0.14,0.04,0.12,40.101696971574654,1.3972429163952191,2.422777704603319,
40131.6,9.19999999999709,0.03,0.08,1.05,0.22,0.18,0.17,39.302876485061496,1.3740920641695586,2.4344937252509586,
40131.7,9.299999999995634,-0.02,0.13,1.11,0.47,0.13,0.32,38.77508865238093,1.314235909120532,2.4293976636155095,
40131.8,9.400000000001455,-0.03,0.20,1.00,0.63,-0.35,0.55,37.264479065190216,1.3268365120164611,2.4486434367018974,
40131.9,9.5,0.04,0.26,1.00,0.66,-0.86,0.45,36.86928938832426,1.2989252398231315,2.501924243854889,
40132.0,9.599999999998545,0.16,0.26,0.89,0.74,-0.66,0.28,36.45705693003756,1.3008199780033949,2.529109425570197,
40132.1,9.69999999999709,0.31,0.26,0.85,0.61,0.11,-0.31,35.133575109857524,1.4912543595078749,2.509234239633864,
40132.2,9.799999999995634,0.11,0.27,0.79,0.50,0.72,-0.49,37.17172715922681,1.3070371805861054,2.560476260949374,
40132.3,9.900000000001455,0.03,0.33,0.71,0.54,-0.38,-0.25,37.30598343429644,1.1968924947943735,2.620792206403496,
40132.4,10.0,0.06,0.40,0.66,0.31,-1.20,-0.14,39.400115482064265,1.4089019382175823,2.676215110604109,
40132.5,10.099999999998545,0.26,0.45,0.66,-0.14,0.23,-0.18,38.160766501735786,1.5695871375414256,2.693297514223925,
40132.6,10.19999999999709,0.14,0.38,0.65,-0.12,0.42,-0.06,38.180127029647245,1.4935049550523671,2.7445471648001254,
40132.7,10.299999999995634,0.18,0.43,0.75,-0.14,-0.06,-0.03,37.76236883459511,1.5423294425250373,2.740136849290903,
40132.8,10.400000000001455,0.24,0.37,0.79,0.04,0.22,0.00,37.626486681591736,1.558668358689187,2.687900288055486,
40132.9,10.5,0.16,0.49,0.76,-0.04,0.10,0.08,37.498238625300786,1.5237231962751538,2.6773821891790486,
40133.0,10.599999999998545,0.19,0.35,0.88,0.01,-0.05,0.04,37.89241744729412,1.4453439820066785,2.710776120705899,
40133.1,10.69999999999709,0.18,0.34,0.80,0.41,0.32,0.28,37.53361559988593,1.5066404957222739,2.717590297042418,
40133.2,10.799999999995634,0.14,0.44,0.74,0.38,0.35,0.15,36.36795567529195,1.4039339528972103,2.7347907270251395,
40133.3,10.900000000001455,0.17,0.52,0.66,0.37,0.28,0.14,37.29132204682478,1.3526843066331258,2.7673357786221544,
40133.4,11.0,0.12,0.56,0.61,0.25,0.21,0.10,38.78704551780143,1.265738320098774,2.7874438724711617,
40133.5,11.099999999998545,0.08,0.60,0.47,-0.18,0.23,0.05,38.72051394287013,1.1229010846384264,2.8130906359422605,
40133.6,11.19999999999709,0.10,0.65,0.60,-0.64,0.12,0.05,39.012646667459,1.094695642284794,2.794036616056587,
40133.7,11.299999999995634,0.11,0.53,0.66,-0.96,0.20,-0.09,39.60764320178619,1.1898372049483272,2.7145095783924726,
40133.8,11.400000000001455,0.01,0.33,0.78,-1.01,0.35,-0.08,37.63222820934206,1.2213495497945261,2.6519229804298274,
40133.9,11.5,0.04,0.34,0.79,-0.92,0.06,-0.16,38.07459257825355,1.1799152900286185,2.5307786865574027,
40134.0,11.599999999998545,0.08,0.22,0.94,-0.81,-0.32,-0.05,36.59732367264033,1.3208955422461266,2.5241473517084305,
40134.1,11.69999999999709,0.16,0.11,0.91,-0.79,0.59,-0.02,36.4965121621231,1.356525104830067,2.4877862955549452,
40134.2,11.799999999995634,0.07,0.03,1.03,-0.83,0.46,0.04,37.354299618651666,1.2582369349142106,2.4528825023119345,
40134.3,11.900000000001455,0.14,-0.03,0.94,-0.47,-0.08,0.01,38.236119049924504,1.3426510903256856,2.4462907878440996,
40134.4,12.0,-0.07,-0.02,1.02,-0.37,0.72,-0.20,38.420771725721494,1.3127995311953569,2.408468886557861,
40134.5,12.099999999998545,-0.04,-0.08,0.95,-0.26,0.20,-0.10,39.84597344776508,1.3295959832200321,2.398434507731405,
40134.6,12.19999999999709,-0.00,-0.08,0.99,-0.33,0.38,-0.08,40.091467920244575,1.283445379621428,2.360473699774911,
40134.7,12.299999999995634,-0.07,-0.12,1.00,-0.20,0.02,-0.16,40.07279002016206,1.2565317994202108,2.3271188073248403,
40134.8,12.400000000001455,-0.07,-0.08,1.10,0.07,-0.21,-0.01,41.46070669923512,1.2545960348100171,2.325711795470087,
40134.9,12.5,0.01,-0.03,1.21,0.62,-0.25,0.07,40.85377583528847,1.2991267635174584,2.330288474856127,
40135.0,12.599999999998545,0.02,-0.02,1.22,1.14,0.55,0.11,40.43177216002287,1.2652693984718717,2.4072002410178195,
40135.1,12.69999999999709,-0.16,0.12,1.05,1.12,-0.17,0.59,36.715458597163135,1.1727820111660447,2.4677260813313264,
40135.2,12.799999999995634,-0.06,0.30,0.87,1.07,-0.78,0.42,37.56128858279492,1.0995851677599395,2.5003565655070434,
40135.3,12.900000000001455,0.07,0.32,0.80,0.88,-0.37,0.31,36.97083850820806,1.1242960187690418,2.5419112987580506,
40135.4,13.0,0.02,0.33,0.65,0.73,-0.44,-0.12,38.956769629937234,1.1207427098650566,2.6004175398194596,
40135.5,13.099999999998545,-0.00,0.41,0.57,0.34,-0.74,-0.23,38.848970385326815,1.1433155532355967,2.647358411709816,
40135.6,13.19999999999709,0.08,0.39,0.66,0.01,-0.22,-0.15,39.09085570820879,1.144871442573904,2.6726009399200237,
40135.7,13.299999999995634,0.10,0.39,0.70,-0.04,-0.51,0.04,38.75627175051801,1.3157982631153233,2.7166887394357166,
40135.8,13.400000000001455,0.23,0.44,0.75,-0.12,-0.20,0.10,39.40799030653555,1.4314456471891321,2.735950509053021,
40135.9,13.5,0.26,0.41,0.78,-0.03,0.05,0.02,38.22297084215197,1.4387117866103163,2.7221722781314903,
40136.0,13.599999999998545,0.26,0.45,0.76,-0.04,-0.06,0.02,38.11578937920609,1.4080421374708012,2.694541992059048,
40136.1,13.69999999999709,0.19,0.41,0.82,-0.10,0.01,0.03,36.52109253568408,1.530997186698174,2.700788544927102,
40136.2,13.799999999995634,0.18,0.49,0.76,0.01,0.07,-0.15,38.237401846882854,1.4514142326034336,2.6820217286573893,
40136.3,13.900000000001455,0.20,0.45,0.78,-0.13,-0.35,0.01,37.239566324005445,1.4626922915624807,2.671496820770976,
40136.4,14.0,0.17,0.39,0.78,0.10,0.43,-0.04,38.36288571001926,1.4078874067271552,2.7281144120527063,
40136.5,14.099999999998545,0.22,0.43,0.78,0.28,-0.23,0.38,38.361306025733796,1.2950447471016917,2.6908544565081938,
40136.6,14.19999999999709,0.21,0.40,0.71,0.26,0.18,0.21,36.884015508076125,1.3221238270403255,2.680371884441022,
40136.7,14.299999999995634,0.27,0.47,0.67,0.26,0.24,0.07,39.28411129197147,1.4250596625211946,2.7266222411625494,
40136.8,14.400000000001455,0.22,0.53,0.65,0.41,0.09,0.22,38.373859592175506,1.264344196305985,2.7432914375654853,
40136.9,14.5,0.16,0.55,0.60,0.08,0.42,0.19,38.049993429697196,1.1469586936321963,2.7411633235267217,
40137.0,14.599999999998545,0.13,0.57,0.61,-0.26,0.42,-0.28,36.70710830343355,0.9491865151728087,2.734689204580251,
40137.1,14.69999999999709,0.03,0.46,0.77,-0.83,0.28,-0.18,37.89067563398679,1.0355287102885253,2.6965602858777036,
40137.2,14.799999999995634,0.04,0.37,0.80,-1.01,-0.20,-0.11,38.163022679027925,1.0794427814586613,2.6718854561762475,
40137.3,14.900000000001455,0.14,0.27,0.87,-1.14,0.31,-0.15,37.619401909121315,1.1808065669694239,2.6002247430886656,
40137.4,15.0,0.03,0.17,0.89,-1.21,0.60,-0.22,35.00278560343448,1.332705250293413,2.5061231191131115,
40137.5,15.099999999998545,-0.01,0.06,0.87,-1.21,-0.02,-0.17,36.60952608270148,1.2931790674563945,2.4210438781998134,
40137.6,15.19999999999709,0.05,-0.10,1.08,-1.33,-0.06,-0.32,37.60072339729649,1.3411149777886455,2.37795697451587,
40137.7,15.299999999995634,-0.00,-0.25,1.10,-1.01,0.46,-0.22,38.064769800959,1.3625408271857236,2.3223621034653164,
40137.8,15.400000000001455,-0.02,-0.28,1.02,-0.61,0.48,-0.04,40.154791743950064,1.3573861201558106,2.2457127031907653,
40137.9,15.5,-0.07,-0.29,0.97,-0.44,0.15,-0.01,41.36509156281417,1.3620090064807826,2.229522869458786,
40138.0,15.599999999998545,-0.09,-0.34,0.92,-0.31,0.13,-0.01,42.89324888604266,1.3149621402061258,2.1930185005970855,
40138.1,15.69999999999709,-0.09,-0.35,0.98,-0.15,0.18,0.04,43.03182659381309,1.3111960642373295,2.1507276785113145,
40138.2,15.799999999995634,-0.05,-0.33,1.05,0.17,-0.09,-0.01,44.001947684165074,1.3073724577065622,2.1336629142158023,
40138.3,15.900000000001455,-0.09,-0.29,1.06,0.52,-0.25,-0.01,42.670909294272136,1.3294996325740511,2.15599732945023,
40138.4,16.0,-0.07,-0.27,1.10,0.89,-0.28,0.13,42.01556021285448,1.3338367379641345,2.2277735929685103,
40138.5,16.099999999998545,-0.04,-0.19,1.05,1.12,-0.38,0.21,40.94017586674488,1.3373240915195095,2.290948244279334,
40138.6,16.19999999999709,-0.06,-0.08,0.99,1.26,-0.21,0.29,37.66214810655388,1.2600216458924653,2.328006446053779,
40138.7,16.299999999995634,-0.07,0.06,0.87,0.99,-0.32,0.33,36.12872264556277,1.206236271898495,2.3669440086220663,
40138.8,16.400000000001455,0.00,0.13,0.81,0.64,-0.43,0.30,36.8616073984844,1.2448585109929713,2.399136198353279,
40138.9,16.5,0.19,0.20,0.83,0.70,-0.70,0.02,37.14733503227385,1.2560644971870083,2.3782487528170533,
40139.0,16.599999999998545,0.18,0.22,0.84,0.66,-0.36,-0.31,37.59957047627007,1.2776647024129448,2.4875423508872028,
40139.1,16.69999999999709,0.08,0.27,0.80,0.66,-0.04,-0.37,38.357060627738406,1.3512712167465875,2.545414942821263,
40139.2,16.799999999995634,0.11,0.39,0.68,0.53,-0.16,-0.26,38.13434934543921,1.3287832540251585,2.5757196639030036,
40139.3,16.900000000001455,0.17,0.41,0.65,0.20,-0.22,-0.01,38.946007497560004,1.4057424271261711,2.679995039210473,
40139.4,17.0,0.18,0.40,0.73,0.02,0.15,-0.04,38.23700040536653,1.4367667390294296,2.668088136084904,
40139.5,17.099999999998545,0.12,0.40,0.77,-0.01,-0.17,0.02,38.60607853693509,1.4452186631220716,2.6785056558771094,
40139.6,17.19999999999709,0.21,0.41,0.80,-0.02,-0.01,-0.05,37.966830260109944,1.453514079557832,2.682170073918411,
40139.7,17.299999999995634,0.19,0.42,0.77,0.04,0.02,0.03,36.89212111006902,1.4341097121772175,2.659651911355305,
40139.8,17.400000000001455,0.21,0.46,0.76,-0.03,-0.06,-0.00,37.91043919555668,1.23697579218033,2.6757011984805414,
40139.9,17.5,0.18,0.44,0.77,-0.09,-0.21,-0.04,37.53928608804382,1.3871570149106045,2.6853771181034998,
40140.0,17.599999999998545,0.20,0.36,0.86,-0.14,-0.01,-0.01,38.47165839939838,1.4166082595706186,2.689702385268822,
40140.1,17.69999999999709,0.16,0.32,0.87,0.12,0.18,0.02,37.15339284641444,1.5163974126862776,2.6463760750742362,
40140.2,17.799999999995634,0.16,0.40,0.80,0.32,-0.08,0.07,37.92037051506749,1.3439491765626201,2.7199999525605576,
40140.3,17.900000000001455,0.15,0.38,0.74,0.28,-0.23,0.19,38.15147179336598,1.2997785343453578,2.7349255563269597,
40140.4,18.0,0.36,0.52,0.72,0.44,-0.07,0.25,37.0292938090912,1.4809426409698727,2.7363382640111222,
40140.5,18.099999999998545,0.26,0.45,0.66,0.35,0.49,0.10,37.951773344601435,1.4488440186385692,2.7946127573704893,
40140.6,18.19999999999709,0.19,0.48,0.61,0.17,0.51,-0.02,39.12943137843943,1.1584734662097218,2.800868903516796,
40140.7,18.299999999995634,0.12,0.53,0.58,-0.12,-0.16,0.13,38.97346918096976,1.2468942098564586,2.7953070732844596,
40140.8,18.400000000001455,0.26,0.52,0.69,-0.33,-1.41,0.60,40.50629580694833,1.2936131541141092,2.768523946609315,
40140.9,18.5,0.37,0.53,0.67,-0.74,0.38,0.16,38.463977953404665,1.2997785343453578,2.7384220076186008,
40141.0,18.599999999998545,0.32,0.42,0.68,-0.85,1.19,-0.04,36.731867635610364,1.3362456960288038,2.6539270462150983,
40141.1,18.69999999999709,0.12,0.32,0.74,-0.74,0.90,-0.40,38.5940124889859,1.2061040559460132,2.597953982790664,
40141.2,18.799999999995634,-0.07,0.26,0.83,-0.52,-0.21,-0.22,38.40636015037093,1.189536180981066,2.526173299981415,
40141.3,18.900000000001455,0.19,0.25,0.91,-0.41,-0.51,-0.10,37.38001605136092,1.2644473980776685,2.5335354097565936,
40141.4,19.0,0.10,0.20,0.93,-0.66,0.40,0.02,37.15514903751565,1.353167138926219,2.5110271975045775,
40141.5,19.099999999998545,0.06,0.07,0.87,-1.05,0.17,0.10,37.73152660574443,1.299104118144852,2.4624780273544844,
40141.6,19.19999999999709,0.09,0.01,0.97,-1.05,0.20,-0.16,39.27274118265747,1.351840566211127,2.401906720644306,
40141.7,19.299999999995634,0.03,-0.06,0.95,-0.81,0.64,-0.13,38.97541404526705,1.3116775446966642,2.3478913688111542,
40141.8,19.400000000001455,0.05,-0.23,1.05,-0.73,0.05,-0.11,40.89279887706392,1.3414475896957618,2.297186865776804,
40141.9,19.5,0.05,-0.26,1.05,-0.26,0.40,-0.10,42.53995181003382,1.3288680224832872,2.2684937701300694,
40142.0,19.599999999998545,-0.03,-0.21,0.92,-0.16,0.23,-0.05,42.1678218550591,1.32056989843029,2.2321838857427116,
40142.1,19.69999999999709,-0.02,-0.25,0.92,-0.15,0.11,0.02,42.05346240204248,1.321798980055605,2.231889850383014,
40142.2,19.799999999995634,-0.00,-0.24,0.94,-0.04,0.09,-0.04,42.41541582962497,1.2935020967693123,2.2055072896592187,
40142.3,19.900000000001455,-0.04,-0.25,0.92,-0.01,0.13,-0.10,42.30204013992706,1.3115360594678185,2.242336171175584,
40142.4,20.0,-0.02,-0.25,1.04,0.13,-0.07,0.05,42.82074030186774,1.3104619853580095,2.2377883400856473,
40142.5,20.099999999998545,0.07,-0.21,1.08,0.55,-0.61,0.14,40.54073013649359,1.342930540332485,2.219102582645414,
40142.6,20.19999999999709,0.07,-0.13,1.13,0.83,-0.10,-0.03,40.79246008761913,1.3360737143096995,2.2701803192236607,
40142.7,20.299999999995634,0.08,-0.03,1.05,1.20,-0.88,-0.04,36.87143067471074,1.3019264825766537,2.3277505139257757,
40142.8,20.400000000001455,-0.01,0.06,0.93,1.21,-0.68,-0.26,37.17825843150806,1.2802657081028355,2.410613619875574,
40142.9,20.5,0.09,0.14,0.87,1.15,-0.88,0.02,36.71561656843039,1.3623394638902517,2.481368268098286,
40143.0,20.599999999998545,0.24,0.29,0.76,1.01,-0.44,-0.14,36.73052545227198,1.4605562502417109,2.527040234270262,
40143.1,20.69999999999709,0.24,0.38,0.70,0.68,0.23,-0.22,36.23697697104437,1.499450960250983,2.5962080220490367,
40143.2,20.799999999995634,0.17,0.42,0.69,0.52,-0.43,-0.08,39.303625786942355,1.4442237429795874,2.652735639781063,
40143.3,20.900000000001455,0.23,0.44,0.66,0.31,-0.28,-0.01,36.57920037398302,1.4696046782226693,2.6787139456045623,
40143.4,21.0,0.24,0.46,0.61,0.05,0.18,-0.11,38.47487101992676,1.6403202290178567,2.7133204513140576,
40143.5,21.099999999998545,0.24,0.46,0.64,-0.11,0.10,-0.03,37.29016358237116,1.6200014886655139,2.720329370999238,
40143.6,21.19999999999709,0.24,0.44,0.72,-0.18,0.00,0.04,37.425373745628775,1.5577337125289812,2.720107966361008,
40143.7,21.299999999995634,0.27,0.43,0.73,-0.18,-0.01,0.01,36.53028332767212,1.5656483671235721,2.702182070438353,
40143.8,21.400000000001455,0.27,0.41,0.76,-0.19,-0.12,-0.08,38.023888543914076,1.595975279648088,2.698995668839793,
40143.9,21.5,0.29,0.39,0.78,-0.13,-0.21,-0.02,37.731172788557735,1.546787218980007,2.659452890034814,
40144.0,21.599999999998545,0.26,0.39,0.78,-0.11,0.05,-0.00,36.8920668979118,1.564237088723142,2.669693097800548,
40144.1,21.69999999999709,0.29,0.40,0.77,-0.05,0.07,0.00,36.914976635506626,1.564492685361469,2.64922087290166,
40144.2,21.799999999995634,0.29,0.35,0.82,0.12,0.03,0.07,37.24599441550729,1.5942295366743644,2.678315588960333,
40144.3,21.900000000001455,0.30,0.36,0.78,0.26,0.19,-0.04,38.54262186203736,1.639343798588347,2.6611933331718727,
40144.4,22.0,0.30,0.41,0.72,0.24,0.06,0.04,37.979275927800416,1.588838606294637,2.672109301395469,
40144.5,22.099999999998545,0.29,0.42,0.71,0.19,-0.27,0.11,37.52098879294094,1.6001812370377548,2.701143789576275,
40144.6,22.19999999999709,0.29,0.48,0.72,0.15,-0.02,0.14,38.024261991523254,1.5953916121375915,2.6995893686861656,
40144.7,22.299999999995634,0.21,0.48,0.66,-0.03,0.40,0.09,37.445460339005045,1.6610152969166307,2.6874564698061087,
40144.8,22.400000000001455,0.29,0.53,0.64,-0.13,0.10,0.20,38.76702980626708,1.4560379666180754,2.7117224727111684,
40144.9,22.5,0.27,0.47,0.67,-0.15,0.20,0.06,37.744165111974596,1.3660052335267372,2.7372149061309266,
40145.0,22.599999999998545,0.22,0.43,0.67,-0.19,0.53,-0.08,39.019531006920104,1.3397735920740148,2.694842803799772,
40145.1,22.69999999999709,0.19,0.45,0.66,-0.42,0.46,-0.12,38.62600937192451,1.3248357590880988,2.677473284615031,
40145.2,22.799999999995634,0.11,0.36,0.78,-0.65,0.23,-0.10,39.150673046577374,1.2560165086668356,2.6065878523072774,
40145.3,22.900000000001455,0.14,0.33,0.91,-0.70,0.44,-0.27,37.5332945529699,1.2495258491736627,2.587120559512228,
40145.4,23.0,-0.02,0.32,0.87,-0.79,0.67,-0.40,36.53255123858721,1.1781719726905455,2.5190974976314147,
40145.5,23.099999999998545,-0.18,0.17,0.83,-0.80,0.30,-0.35,37.66790410946699,1.1843616535503503,2.4996717739376404,
40145.6,23.19999999999709,-0.05,0.09,1.01,-0.87,0.53,-0.22,37.70735869827003,1.1564688351309325,2.4346158736195385,
40145.7,23.299999999995634,-0.16,-0.04,0.99,-0.77,0.13,-0.12,38.54371284658498,1.1414947909020388,2.3903752479021056,
40145.8,23.400000000001455,-0.20,-0.07,0.96,-0.79,0.09,0.05,39.49877339867657,1.2049396681896425,2.380118931560578,
40145.9,23.5,-0.20,-0.13,1.04,-0.52,0.36,-0.03,40.67764127871723,1.171811040643145,2.3357700322688575,
40146.0,23.599999999998545,-0.24,-0.17,0.96,-0.19,0.20,-0.02,40.41370807040601,1.1980600840836801,2.28298383913021,
40146.1,23.69999999999709,-0.22,-0.17,1.01,-0.02,0.01,0.06,41.01525326022015,1.1904662543351479,2.2621332156359886,
40146.2,23.799999999995634,-0.16,-0.13,1.11,0.35,-0.36,0.08,40.308794325804385,1.2017760535651842,2.2750974270478093,
40146.3,23.900000000001455,-0.18,-0.10,1.15,0.84,-0.58,0.19,40.32513360176256,1.1848545336113927,2.3253075638018545,
40146.4,24.0,-0.12,-0.00,1.16,1.41,-0.75,0.28,39.45852125967217,1.1589661479085265,2.365868628012098,
40146.5,24.099999999998545,-0.06,0.17,0.95,1.52,-0.65,0.23,36.49187032751267,1.1798022674907764,2.4776563070266104,
40146.6,24.19999999999709,0.01,0.34,0.75,1.24,-0.27,0.18,37.07609202707319,1.2247679826827182,2.5231990767569092,
40146.7,24.299999999995634,-0.01,0.39,0.67,0.86,-0.47,0.09,38.345046616218895,1.0722234411514,2.605211099241187,
40146.8,24.400000000001455,0.07,0.47,0.64,0.69,-0.77,-0.03,36.92849441826731,1.135554650481503,2.663037997049634,
40146.9,24.5,0.12,0.47,0.60,0.26,-0.24,0.01,38.169145916564595,1.206270324387962,2.7246987711639368,
40147.0,24.599999999998545,0.17,0.46,0.60,-0.08,-0.38,0.07,39.769438014636314,1.3077267280032387,2.7580513256961883,
40147.1,24.69999999999709,0.21,0.46,0.65,-0.24,-0.36,0.00,39.08674071856082,1.4438095429464433,2.7454687437442358,
40147.2,24.799999999995634,0.24,0.44,0.74,-0.30,-0.09,-0.07,37.78905397069368,1.4877602529059626,2.7103909275740774,
40147.3,24.900000000001455,0.24,0.42,0.76,-0.28,-0.01,-0.03,38.19126863564498,1.492043875266458,2.6904372021889196,
40147.4,25.0,0.25,0.38,0.81,-0.21,-0.02,-0.01,38.00291304623897,1.5023942841243605,2.6656893157821258,
40147.5,25.099999999998545,0.25,0.38,0.79,-0.01,-0.14,0.04,37.2629574779029,1.5539304563056384,2.6798086171303717,
40147.6,25.19999999999709,0.31,0.42,0.76,-0.05,-0.01,-0.02,37.25818836175479,1.5646614344370207,2.6395175818594176,
40147.7,25.299999999995634,0.27,0.40,0.78,-0.15,0.07,-0.09,37.88546291125397,1.5713746957298282,2.667675003670713,
40147.8,25.400000000001455,0.19,0.37,0.83,0.10,0.29,-0.01,36.91552925260587,1.583976079367684,2.649192967779542,
40147.9,25.5,0.26,0.44,0.75,0.27,-0.00,0.06,38.32771582027815,1.5315203473232044,2.680204954056207,
40148.0,25.599999999998545,0.28,0.41,0.73,0.25,-0.09,0.13,36.59633588216175,1.5217369047605402,2.6857811315528957,
40148.1,25.69999999999709,0.25,0.48,0.67,0.09,-0.05,0.09,37.50304254323907,1.6464551492357804,2.6849256146657554,
40148.2,25.799999999995634,0.20,0.41,0.68,0.01,0.18,0.02,37.37313072248564,1.5190154133744806,2.72654209580805,
40148.3,25.900000000001455,0.20,0.40,0.71,-0.05,0.19,0.17,37.65649611952764,1.5206478109827195,2.7097829083317726,
40148.4,26.0,0.30,0.46,0.75,0.15,0.08,0.19,38.26210266046549,1.5577697683904332,2.7066698950710246,
40148.5,26.099999999998545,0.23,0.47,0.69,0.12,0.38,0.14,39.2382313566756,1.4756135801974861,2.7099931956363745,
40148.6,26.19999999999709,0.25,0.48,0.66,-0.04,0.50,0.01,38.315205858771,1.3703870774386806,2.758649859664595,
40148.7,26.299999999995634,0.16,0.50,0.69,-0.39,0.48,0.01,37.2174931987634,1.236956551359006,2.6828757251590245,
40148.8,26.400000000001455,0.10,0.44,0.76,-0.61,0.47,-0.16,40.24225888292058,1.2195404485841754,2.6716627886329873,
40148.9,26.5,0.10,0.41,0.81,-0.54,0.45,-0.04,36.792901489281874,1.2075048916619717,2.6265598543324735,
40149.0,26.599999999998545,0.03,0.34,0.86,-0.59,0.08,-0.10,38.455691386321476,1.0931523853703995,2.6100596042666084,
40149.1,26.69999999999709,0.04,0.27,0.85,-0.65,0.37,-0.31,37.51477309007746,1.1530476666846203,2.5363124664390093,
40149.2,26.799999999995634,0.01,0.18,0.93,-0.65,0.33,-0.21,37.97900209326201,1.1653968404349713,2.48188831733843,
40149.3,26.900000000001455,-0.06,0.13,0.94,-0.70,0.51,-0.20,37.357447717958465,1.2056837471339072,2.418126776367922,
40149.4,27.0,-0.06,0.09,0.95,-0.68,0.68,-0.17,39.62072563696935,1.245072612277096,2.4434123944141963,
40149.5,27.099999999998545,-0.12,-0.05,1.04,-0.61,0.51,-0.20,39.07534900675873,1.179574263981913,2.425596603029181,
40149.6,27.19999999999709,-0.21,-0.09,0.96,-0.48,0.20,-0.09,41.47141304561493,1.1611829720329558,2.350932304999391,
40149.7,27.299999999995634,-0.19,-0.06,1.01,-0.29,0.06,-0.15,40.04999500624188,1.2058692505136488,2.2935112090126757,
40149.8,27.400000000001455,-0.20,-0.11,0.97,-0.16,0.13,0.08,40.493345132255996,1.2175104889076445,2.3039895933083985,
40149.9,27.5,-0.18,-0.11,1.04,0.12,-0.12,0.08,41.17056715664723,1.1456460933299335,2.2751612033125763,
40150.0,27.599999999998545,-0.18,-0.09,1.05,0.40,-0.09,0.14,41.54245659563238,1.1879980357221198,2.3068404547704966,
40150.1,27.69999999999709,-0.17,-0.04,1.09,0.61,0.01,0.27,40.34226195938944,1.1167496044733891,2.292741003862078,
40150.2,27.799999999995634,-0.23,0.03,1.10,1.08,-0.54,0.21,38.73019106588554,1.0760454797976498,2.3479621035973497,
40150.3,27.900000000001455,-0.18,0.15,0.89,1.20,-0.87,0.31,38.70292237028103,1.075572838806489,2.4272110148905144,
40150.4,28.0,-0.01,0.27,0.86,0.95,-0.56,0.30,38.221006004552,1.0787051787007131,2.5176744348435,
40150.5,28.099999999998545,0.04,0.36,0.79,0.96,-0.49,-0.03,37.987778297763086,1.0894551778532668,2.5484963988118827,
40150.6,28.19999999999709,0.07,0.43,0.67,0.88,-0.90,-0.05,39.39606198593967,1.1388004128155682,2.6483427127712207,
40150.7,28.299999999995634,0.11,0.47,0.62,0.39,-0.36,-0.09,39.71499213143571,1.1762881325367303,2.718312155760463,
40150.8,28.400000000001455,0.11,0.49,0.60,-0.05,-0.00,-0.07,38.76299653019617,1.2405508311161435,2.7264230796237165,
40150.9,28.5,0.11,0.45,0.65,-0.22,-0.20,0.01,39.593293624046986,1.2747338513085906,2.742382166218439,
40151.0,28.599999999998545,0.21,0.45,0.69,-0.27,-0.43,0.01,39.7566673653615,1.446363974779426,2.7264694507519858,
40151.1,28.69999999999709,0.22,0.42,0.73,-0.32,-0.03,-0.10,37.885968378807476,1.5105299868623123,2.707366855458402,
40151.2,28.799999999995634,0.24,0.38,0.79,-0.24,0.06,-0.08,38.22063578749051,1.4514861740852616,2.6888538470837946,
40151.3,28.900000000001455,0.19,0.36,0.81,-0.17,0.13,-0.07,37.20045833050986,1.4840317400219045,2.6819825360616596,
40151.4,29.0,0.16,0.39,0.78,-0.10,0.03,-0.15,38.73585548300179,1.4211260123022051,2.647335483438694,
40151.5,29.099999999998545,0.21,0.40,0.82,-0.13,-0.10,0.00,37.8161737884731,1.505559517552177,2.660862800769101,
40151.6,29.19999999999709,0.22,0.37,0.83,0.19,0.00,0.15,38.28349383219875,1.5020287026851227,2.6115270796108874,
40151.7,29.299999999995634,0.21,0.44,0.79,0.23,-0.13,0.09,37.0899582097365,1.5264434106333546,2.6404970987972614,
40151.8,29.400000000001455,0.22,0.42,0.80,0.26,0.01,0.07,38.518622768733564,1.4792333694001527,2.654011744795976,
40151.9,29.5,0.26,0.46,0.69,0.34,0.04,0.09,37.15059218908899,1.426743328711102,2.703996426562752,
40152.0,29.599999999998545,0.09,0.41,0.70,0.08,0.16,0.18,37.39919384157899,1.3977752721814138,2.6533831910780297,
40152.1,29.69999999999709,0.14,0.48,0.71,0.12,0.05,0.14,39.62495804414183,1.3483634519287468,2.7221431432810186,
40152.2,29.799999999995634,0.18,0.48,0.69,0.09,0.20,0.27,38.887450417840455,1.3048712174753914,2.7148513738217015,
40152.3,29.900000000001455,0.17,0.49,0.64,-0.15,0.21,0.13,38.22917733878144,1.1344704171605235,2.7085274085322637,
40152.4,30.0,0.21,0.44,0.77,-0.33,0.26,0.13,39.07608219870564,1.2047848004648904,2.683080900419365,
40152.5,30.099999999998545,0.13,0.48,0.79,-0.41,0.34,-0.11,38.7059749909494,1.29704381341076,2.6542588698211533,
40152.6,30.19999999999709,0.07,0.47,0.82,-0.25,-0.02,-0.12,39.17911943880311,1.0436777913569226,2.640374215646026,
40152.7,30.299999999995634,0.08,0.42,0.82,-0.34,0.24,-0.15,38.9086494240034,1.1388764659131594,2.6429048345806527,
40152.8,30.400000000001455,0.14,0.38,0.83,-0.41,0.42,-0.20,37.81844655720274,1.1102542978721093,2.623748073426007,
40152.9,30.5,0.03,0.33,0.83,-0.64,0.77,-0.17,39.07077808285881,1.1318187503164974,2.595089278188011,
40153.0,30.599999999998545,-0.07,0.26,0.91,-0.70,0.20,-0.22,39.047860376722305,1.0781831424224948,2.5453406759957105,
40153.1,30.69999999999709,-0.09,0.18,0.97,-0.65,0.47,-0.22,39.95059073405549,1.0729579501530928,2.5030947217964243,
40153.2,30.799999999995634,-0.07,0.15,0.99,-0.60,0.33,-0.32,39.86695624198065,1.0879647151754208,2.4580318990900123,
40153.3,30.900000000001455,-0.14,0.08,1.05,-0.19,0.51,-0.16,39.15442631427512,1.0449542020684595,2.411329345275207,
40153.4,31.0,-0.21,0.01,0.94,-0.25,0.13,-0.03,39.45699050865385,1.117909891787226,2.3875027518480545,
40153.5,31.099999999998545,-0.22,0.04,0.96,-0.21,0.02,-0.03,39.56789860480337,1.106981437768886,2.399733646709693,
40153.6,31.19999999999709,-0.20,0.05,1.06,0.08,-0.16,0.10,39.0472239730304,1.0656711971866064,2.3755585662364425,
40153.7,31.299999999995634,-0.09,0.12,1.14,0.51,-0.43,0.29,39.94308200427203,1.07723454132749,2.4073020288037896,
40153.8,31.400000000001455,-0.10,0.21,1.09,0.91,-0.40,0.24,38.83863797817838,1.0503421688208736,2.4538550677516557,
40153.9,31.5,-0.18,0.24,0.95,1.10,-0.62,0.17,38.614896089462675,1.0631100251427739,2.4446411561860764,
40154.0,31.599999999998545,-0.14,0.31,0.80,1.17,-1.02,0.28,38.40324725853271,0.99759527379454,2.5339992800771585,
40154.1,31.69999999999709,0.08,0.48,0.66,0.91,-0.65,0.01,37.3983796440434,1.1442628981960095,2.6517165714668187,
40154.2,31.799999999995634,0.08,0.45,0.63,0.61,-0.04,-0.10,38.03335904176753,1.1297437418807894,2.7121593416484564,
40154.3,31.900000000001455,0.04,0.50,0.56,0.31,-0.27,-0.11,39.17280051260058,1.1122861763727183,2.754200930993103,
40154.4,32.0,0.13,0.51,0.55,-0.09,-0.42,-0.05,38.32455740122774,1.1967640272996103,2.7580445756084253,
40154.5,32.099999999998545,0.16,0.50,0.58,-0.43,-0.09,-0.02,39.17601562180616,1.2782933616846097,2.78342975594954,
40154.6,32.19999999999709,0.18,0.45,0.71,-0.43,-0.11,-0.02,38.87295203608802,1.349796382811828,2.774282760665815,
40154.7,32.299999999995634,0.21,0.47,0.77,-0.32,-0.48,-0.00,37.74307088725028,1.3536573887680388,2.7156041923626106,
40154.8,32.400000000001455,0.25,0.41,0.82,-0.18,-0.09,-0.00,37.49703188253705,1.4838968753682311,2.696888832166473,
40154.9,32.5,0.21,0.40,0.79,-0.12,0.01,0.03,36.34112821583832,1.3871570149106045,2.6691319390460393,
40155.0,32.599999999998545,0.26,0.43,0.80,-0.09,-0.26,0.00,37.167659329045726,1.5324984790108953,2.698601640330491,
40155.1,32.69999999999709,0.24,0.32,0.88,0.11,0.37,0.03,36.951829454033806,1.496236005822911,2.6742840251647175,
40155.2,32.799999999995634,0.22,0.43,0.84,0.28,0.03,0.11,37.319943729861116,1.446363974779426,2.6975036429113777,
40155.3,32.900000000001455,0.23,0.43,0.77,0.25,-0.10,0.16,37.18215297693236,1.5098330021461837,2.713706955867147,
40155.4,33.0,0.22,0.41,0.76,0.32,-0.13,0.01,37.12814700466481,1.530997186698174,2.7084880838041947,
40155.5,33.099999999998545,0.27,0.47,0.72,0.30,-0.04,0.15,37.80899363908011,1.5510805719098721,2.756499981736758,
40155.6,33.19999999999709,0.25,0.45,0.69,0.34,-0.08,0.18,38.24579715472015,1.5735454607626023,2.751325606413131,
40155.7,33.299999999995634,0.30,0.47,0.63,0.41,-0.02,0.22,37.8979009972848,1.4742043622735383,2.775019133032317,
40155.8,33.400000000001455,0.19,0.53,0.55,-0.04,0.52,-0.06,37.463332740160745,1.5313210460122755,2.8180877753890825,
40155.9,33.5,0.18,0.56,0.59,-0.16,0.25,-0.07,37.93598950864469,1.4184312184920238,2.7812805916617904,
40156.0,33.599999999998545,0.17,0.52,0.70,-0.16,-0.17,0.08,37.980725374852966,1.4428935477277613,2.7940536684024413,
40156.1,33.69999999999709,0.21,0.65,0.63,-0.37,0.37,-0.10,38.53806819237311,1.219328559601062,2.78029438738872,
40156.2,33.799999999995634,0.12,0.53,0.72,-0.65,0.45,-0.23,38.95390866139109,1.2201149399844766,2.753025076482749,
40156.3,33.900000000001455,0.17,0.48,0.83,-0.59,0.01,-0.18,37.124291239025695,1.121703279949686,2.742026123493571,
40156.4,34.0,0.12,0.43,0.78,-0.66,0.27,-0.29,37.27016769481994,1.1251274166748988,2.692839417270389,
40156.5,34.099999999998545,0.00,0.33,0.81,-0.83,0.64,-0.35,37.540945646054254,1.1508380515136931,2.6189849749761613,
40156.6,34.19999999999709,-0.06,0.25,0.90,-1.00,0.44,-0.27,38.62819954385656,1.1873372878333315,2.5549633370329063,
40156.7,34.299999999995634,-0.09,0.10,0.98,-0.97,0.57,-0.26,38.39600630273935,1.1269201524092494,2.5261035680424855,
40156.8,34.400000000001455,-0.07,0.11,1.06,-0.77,0.29,-0.33,41.233426973755165,1.1520791810002093,2.4345795777328285,
40156.9,34.5,-0.18,0.01,0.99,-0.51,0.53,-0.24,39.775652100248465,1.1263156993775993,2.3606261510990754,
40157.0,34.599999999998545,-0.25,-0.07,0.95,-0.44,0.26,-0.17,40.23344504265077,1.157720509055683,2.357976724370297,
40157.1,34.69999999999709,-0.21,-0.09,1.01,-0.25,-0.44,0.03,40.815341478419604,1.220184075543454,2.326796270082434,
40157.2,34.799999999995634,-0.12,-0.09,1.06,0.11,-0.24,0.12,39.9194639242563,1.1980672777105905,2.3580623835877725,
40157.3,34.900000000001455,-0.13,-0.04,1.06,0.35,-0.05,0.14,40.65450159576427,1.2380881986037386,2.3421323680228676,
40157.4,35.0,-0.16,-0.04,0.97,0.66,-1.10,0.28,40.683988250907746,1.2224649480361258,2.3427992040537315,
40157.5,35.099999999998545,0.06,0.06,1.06,0.88,-1.21,0.29,38.619399270314915,1.2409198739337584,2.4139959753463325,
40157.6,35.19999999999709,0.20,0.18,1.07,1.25,-0.26,0.11,38.06659690594892,1.3800069835390893,2.4578601488464935,
40157.7,35.299999999995634,0.05,0.31,0.83,1.25,-0.12,-0.00,37.212613452967794,1.319381710697488,2.5386058443359913,
40157.8,35.400000000001455,0.10,0.35,0.74,0.97,-0.95,0.26,36.24662880875958,1.353631400149008,2.597898868056792,
40157.9,35.5,0.33,0.48,0.66,0.69,-0.19,-0.18,37.35427552503194,1.4034057192247578,2.67313855114729,
40158.0,35.599999999998545,0.16,0.46,0.62,0.26,1.02,-0.26,38.5998199477666,1.3573844259670473,2.7407427245443827,
40158.1,35.69999999999709,0.04,0.47,0.62,0.10,-0.28,-0.17,39.34747895354923,1.1735659495659287,2.7292785085908844,
40158.2,35.799999999995634,0.12,0.47,0.65,-0.11,-0.52,-0.06,39.92238720317211,1.318219812980904,2.782073962591982,
40158.3,35.900000000001455,0.19,0.48,0.63,-0.31,-0.31,0.03,39.76631866290869,1.348858722058129,2.7476280577701004,
40158.4,36.0,0.25,0.43,0.71,-0.30,-0.15,0.02,39.32321706066278,1.5850899461987116,2.7199992704598035,
40158.5,36.099999999998545,0.24,0.40,0.75,-0.25,-0.21,0.02,37.11173399344202,1.574486346947097,2.6880649386621447,
40158.6,36.19999999999709,0.23,0.39,0.84,-0.21,-0.02,-0.04,36.61627370446097,1.583976079367684,2.644803314495304,
40158.7,36.299999999995634,0.24,0.42,0.78,-0.07,-0.18,-0.01,37.54775359458938,1.5306081863478525,2.6665376842909536,
40158.8,36.400000000001455,0.29,0.42,0.80,-0.14,-0.20,-0.03,36.385377557474925,1.5632733205730351,2.6467087404723455,
40158.9,36.5,0.26,0.26,0.92,0.04,0.44,0.01,36.138641369038766,1.5854077392435444,2.6908975077059534,
40159.0,36.599999999998545,0.19,0.35,0.87,0.28,0.23,0.09,37.473746810267045,1.5350354679336233,2.6604944990903356,
40159.1,36.69999999999709,0.19,0.36,0.77,0.31,-0.38,0.11,37.049472330925305,1.4367667390294296,2.6515945558310565,
40159.2,36.799999999995634,0.27,0.35,0.67,0.18,-0.10,0.05,38.50692015729121,1.677021480673639,2.6931807345186503,
40159.3,36.900000000001455,0.33,0.42,0.71,0.26,-0.31,0.28,37.42513861029776,1.555343596804764,2.7136374617753685,
40159.4,37.0,0.19,0.40,0.72,0.16,0.45,0.15,37.195421761286696,1.623564197126706,2.749309060732459,
40159.5,37.099999999998545,0.14,0.42,0.63,0.05,0.49,-0.06,39.8554387756552,1.503692926674109,2.7580679277947207,
40159.6,37.19999999999709,0.15,0.46,0.66,-0.16,-0.01,0.16,37.371060996444825,1.337232335985002,2.7135859277797576,
40159.7,37.299999999995634,0.23,0.57,0.71,-0.29,0.04,0.03,37.65385106466535,1.3795484985189927,2.732050556798491,
40159.8,37.400000000001455,0.20,0.49,0.77,-0.47,0.87,0.02,38.59490510417146,1.3350524114819315,2.6681718679864677,
40159.9,37.5,0.08,0.41,0.82,-0.48,0.18,-0.11,38.17664731219859,1.1968924947943735,2.63382605681789,
40160.0,37.599999999998545,0.14,0.40,0.89,-0.60,0.41,-0.24,38.246823397505835,1.1824551402466734,2.6300039556470947,
40160.1,37.69999999999709,-0.12,0.31,0.85,-0.67,1.41,-0.54,40.46785761564355,1.0251820680577568,2.553532458647455,
40160.2,37.799999999995634,-0.18,0.24,0.83,-0.73,0.19,-0.29,38.556239443182214,1.0058088009722042,2.5056952343315944,
40160.3,37.900000000001455,-0.19,0.13,0.89,-1.02,0.51,-0.15,38.2507176403267,1.0714496051147666,2.4486934562697202,
40160.4,38.0,-0.20,0.02,0.93,-0.92,0.27,-0.36,41.42162116576318,1.0478789356162896,2.379007086561801,
40160.5,38.099999999998545,-0.22,-0.07,0.93,-0.85,-0.04,-0.36,39.02011788808435,1.1373092737784285,2.3236854565603964,
40160.6,38.19999999999709,-0.30,-0.15,1.00,-0.70,0.23,-0.17,41.27793720621223,1.1258822239548074,2.2818716689009473,
40160.7,38.299999999995634,-0.25,-0.18,1.04,-0.38,-0.06,-0.04,42.546542750263505,1.17844636547209,2.273896886957193,
40160.8,38.400000000001455,-0.23,-0.21,1.02,-0.05,0.11,0.03,40.56937514924281,1.19219174545333,2.22383314696558,
40160.9,38.5,-0.26,-0.20,1.05,0.16,-0.12,0.13,42.526478810265964,1.1736276117968967,2.2411459543045074,
40161.0,38.599999999998545,-0.24,-0.17,1.10,0.56,-0.23,0.31,42.12106598841012,1.1769277160585352,2.2595156809699586,
40161.1,38.69999999999709,-0.22,-0.05,1.17,1.01,-0.28,0.38,40.32113093652013,1.1384826423042467,2.3138887273828033,
40161.2,38.799999999995634,-0.26,0.06,1.05,1.58,-0.79,0.26,39.80860836552817,1.1145434374192265,2.3244041312915065,
40161.3,38.900000000001455,-0.16,0.19,0.84,1.59,-1.23,0.32,37.29858308300732,1.0807157233406783,2.447542943886347,
40161.4,39.0,0.05,0.32,0.68,1.26,-1.35,0.12,37.48393522564033,1.1403359362927785,2.541742600002766,
40161.5,39.099999999998545,0.06,0.42,0.62,0.80,-0.49,-0.14,38.281477244223474,1.178011643672851,2.696394276597027,
40161.6,39.19999999999709,0.04,0.48,0.54,0.31,-0.14,-0.11,39.28978874975023,1.2632148645972923,2.7326485511758847,
40161.7,39.299999999995634,0.12,0.47,0.57,-0.09,-0.34,0.03,38.70285519183307,1.468073612861405,2.762152203111854,
40161.8,39.400000000001455,0.15,0.44,0.66,-0.29,-0.21,0.12,39.01671052254405,1.3436961226476722,2.749111947833317,
40161.9,39.5,0.23,0.44,0.67,-0.27,-0.51,0.08,37.91840977678257,1.5201816985983316,2.7285753822339767,
40162.0,39.599999999998545,0.32,0.38,0.74,-0.29,-0.08,0.04,38.58154481095851,1.6162754004472923,2.7060733945686732,
40162.1,39.69999999999709,0.28,0.41,0.77,-0.24,0.09,-0.13,37.32222528199518,1.6556083274417532,2.6109633490324597,
40162.2,39.799999999995634,0.22,0.36,0.78,-0.20,-0.11,-0.07,37.521948243661335,1.6276148444740675,2.6263179234817255,
40162.3,39.900000000001455,0.27,0.38,0.80,-0.22,-0.15,-0.07,36.78821142703189,1.6033690718494142,2.6362498303406854,
40162.4,40.0,0.28,0.40,0.87,0.19,0.03,0.07,37.12631815841695,1.588738936155666,2.6232793408205413,
40162.5,40.099999999998545,0.22,0.35,0.82,0.41,0.13,-0.02,37.32501172136454,1.5095681174900013,2.6440694452417177,
40162.6,40.19999999999709,0.23,0.38,0.74,0.47,0.21,0.09,37.97005398995371,1.5264434106333546,2.6531491615817635,
40162.7,40.299999999995634,0.25,0.44,0.65,0.42,0.27,0.05,38.09525036011707,1.5447869649535235,2.714924634398155,
40162.8,40.400000000001455,0.15,0.49,0.60,0.14,0.30,0.12,37.93119296832094,1.4656967783402948,2.7605025922486766,
40162.9,40.5,0.18,0.46,0.67,-0.08,0.11,0.17,38.57320961496463,1.3795484985189927,2.7423736906527454,
40163.0,40.599999999998545,0.18,0.43,0.74,0.04,-0.08,0.26,36.646388635171135,1.4741333100003378,2.7621665163822153,
40163.1,40.69999999999709,0.24,0.55,0.64,0.05,0.04,0.08,37.461074464035335,1.4280147080693864,2.7931599233348834,
40163.2,40.799999999995634,0.21,0.58,0.60,-0.38,0.52,-0.08,38.57633601056482,1.338449970414363,2.753670507056099,
40163.3,40.900000000001455,0.18,0.53,0.74,-0.61,0.44,-0.12,36.42881002722982,1.2714048195768042,2.7470447073485484,
40163.4,41.0,0.13,0.55,0.82,-0.50,0.47,-0.45,37.19014654448138,1.242612407194238,2.7048965880297375,
40163.5,41.099999999998545,0.07,0.43,0.85,-0.54,0.49,-0.27,37.008930003446466,1.182829721283935,2.6360751206994237,
40163.6,41.19999999999709,-0.02,0.34,0.85,-0.89,0.38,-0.08,37.57912319360312,1.1300901382210469,2.60825784513875,
40163.7,41.299999999995634,-0.02,0.18,0.94,-0.89,0.03,-0.07,39.00458178214451,1.2000695889915625,2.5415077278884324,
40163.8,41.400000000001455,-0.00,0.15,0.97,-0.82,0.06,-0.34,38.744409919367726,1.2444758000580576,2.511305800820767,
40163.9,41.5,-0.03,0.07,1.04,-0.59,0.79,-0.17,40.609950751016676,1.24515474145161,2.4465686977928525,
40164.0,41.599999999998545,-0.09,0.03,1.01,-0.47,0.50,-0.12,40.33436376094211,1.1702980174941309,2.3915124562763705,
40164.1,41.69999999999709,-0.11,-0.00,1.01,-0.28,0.09,-0.02,40.29007321909455,1.1913522252091358,2.374282079912292,
40164.2,41.799999999995634,-0.14,-0.03,0.99,-0.10,0.11,-0.02,40.771051004358476,1.1798605965020588,2.380086942882507,
40164.3,41.900000000001455,-0.13,-0.03,1.02,0.14,-0.07,0.03,41.14668759450753,1.2142010278506001,2.338981408578976,
40164.4,42.0,-0.11,-0.01,1.03,0.35,-0.09,0.08,39.61613938788079,1.2018367805890402,2.379937792784569,
40164.5,42.099999999998545,-0.14,0.05,1.09,0.51,-0.15,0.27,41.57218902102703,1.1418525977421707,2.39520240977111,
40164.6,42.19999999999709,-0.08,0.16,1.10,0.97,-0.95,0.42,39.301726425183915,1.1659045405098132,2.432571774546884,
40164.7,42.299999999995634,-0.00,0.22,0.98,1.30,-1.31,0.23,39.06439427407009,1.1792340845432765,2.5010191298978026,
40164.8,42.400000000001455,0.10,0.37,0.86,1.25,-0.61,0.10,36.32303676731889,1.2816283233969086,2.5965491075625247,
40164.9,42.5,0.13,0.44,0.71,1.01,-0.16,0.04,36.97103731301031,1.2428250128294611,2.6859995640720653,
40165.0,42.599999999998545,0.08,0.49,0.59,0.56,-0.07,-0.08,39.60232442673031,1.2492649264600537,2.768647988375659,
40165.1,42.69999999999709,0.06,0.52,0.61,0.26,-0.07,0.01,37.554878511319934,1.1370320680628678,2.791745812834034,
40165.2,42.799999999995634,0.07,0.56,0.57,0.05,-0.07,0.01,37.32268211155249,1.1652915450818941,2.790040292442818,
40165.3,42.900000000001455,0.15,0.56,0.56,-0.27,-0.21,-0.04,39.92853741373455,1.2015069894687136,2.7946895904688436,
40165.4,43.0,0.21,0.51,0.66,-0.53,-0.03,-0.06,39.252221593178646,1.2253280392557073,2.805802940051872,
40165.5,43.099999999998545,0.22,0.45,0.73,-0.41,-0.60,-0.04,38.45811487839725,1.2901567812550456,2.7167924664704253,
40165.6,43.19999999999709,0.21,0.41,0.76,-0.40,-0.16,-0.05,38.32739490234107,1.5161244953757465,2.7079588500672394,
40165.7,43.299999999995634,0.22,0.37,0.79,-0.30,-0.25,-0.01,37.492907329253626,1.5075660168611438,2.6964998426693656,
40165.8,43.400000000001455,0.31,0.38,0.81,-0.14,-0.21,0.03,37.64393576660124,1.584237948531593,2.669710956110631,
40165.9,43.5,0.29,0.37,0.82,-0.11,0.10,-0.04,37.54074453177507,1.5546417433739261,2.6429777441684132,
40166.0,43.599999999998545,0.23,0.37,0.82,0.14,0.08,0.06,38.03507460226679,1.5934810338201368,2.659494938552487,
40166.1,43.69999999999709,0.22,0.34,0.84,0.31,0.01,0.09,36.87220904692313,1.4538588385628426,2.6606853345529933,
40166.2,43.799999999995634,0.27,0.40,0.76,0.44,0.00,0.25,37.40176065374463,1.5013535606289272,2.6868029616197364,
40166.3,43.900000000001455,0.25,0.44,0.69,0.39,0.09,0.23,37.51565140044885,1.5195425530611462,2.7180034255375234,
40166.4,44.0,0.21,0.47,0.69,0.35,-0.17,0.26,38.9081431065529,1.4043609248062445,2.7365556311459343,
40166.5,44.099999999998545,0.23,0.45,0.69,0.20,0.20,0.07,39.251749005617576,1.4000611153196139,2.732962799090872,
40166.6,44.19999999999709,0.24,0.47,0.65,0.09,0.30,-0.12,38.02603976224713,1.4103886787741289,2.777993009752597,
40166.7,44.299999999995634,0.18,0.45,0.62,-0.02,0.25,-0.23,39.27331154868405,1.2478816285702494,2.788466651987188,
40166.8,44.400000000001455,0.08,0.53,0.64,-0.19,0.27,-0.23,37.78032689112152,1.2725823766772066,2.7931546346044924,
40166.9,44.5,0.18,0.61,0.69,-0.39,-0.01,-0.10,39.324670373697984,1.1114195887148706,2.7595800330258293,
40167.0,44.599999999998545,0.10,0.54,0.76,-0.57,0.53,-0.20,39.09613407998289,1.2167197468196,2.7350795075509495,
40167.1,44.69999999999709,0.06,0.48,0.84,-0.56,0.69,-0.10,39.47937689477887,1.110270455832327,2.6910635676748202,
40167.2,44.799999999995634,0.02,0.40,0.86,-0.39,0.20,-0.05,38.1234324267897,1.132642351418272,2.632021797872162,
40167.3,44.900000000001455,0.06,0.38,0.85,-0.28,-0.13,-0.03,38.60076812707229,1.1097983031150835,2.5892131939261294,
40167.4,45.0,0.01,0.37,0.84,-0.44,0.22,0.01,38.155049469238016,1.1768390771971267,2.5807514402207024,
40167.5,45.099999999998545,0.07,0.29,0.88,-0.58,0.05,-0.01,38.680920361335765,1.140400490358036,2.551520622464953,
40167.6,45.19999999999709,0.02,0.22,0.88,-0.60,-0.07,-0.11,38.98965119105325,1.1957156059580674,2.5343834168070676,
40167.7,45.299999999995634,0.05,0.17,0.92,-0.53,-0.42,-0.13,39.5365729420242,1.230674426901291,2.50788253806129,
40167.8,45.400000000001455,0.09,0.14,0.99,-0.33,-0.35,-0.34,39.42544102480022,1.2953077877641106,2.504444663612288,
40167.9,45.5,-0.00,0.11,0.94,-0.16,0.38,-0.34,38.12319241616578,1.384121435232308,2.5043010174603726,
40168.0,45.599999999998545,0.09,0.11,0.95,-0.18,-0.02,-0.10,38.311181135537964,1.3484438987226086,2.4890560343598085,
40168.1,45.69999999999709,0.02,0.09,0.95,-0.07,0.15,-0.06,38.33574180839599,1.3532093973781574,2.4291005159428485,
40168.2,45.799999999995634,0.02,0.11,0.92,-0.01,0.09,-0.06,39.987655595195875,1.3471016271135294,2.485684796536157,
40168.3,45.900000000001455,-0.01,0.08,0.89,-0.04,0.08,-0.05,39.295483200999065,1.3037728712657424,2.4885502003702835,
40168.4,46.0,0.01,0.08,0.82,-0.05,0.20,-0.12,39.33805790834113,1.3161931327295282,2.462879253503899,
40168.5,46.099999999998545,-0.02,0.09,0.90,-0.10,0.25,-0.08,39.19181292055778,1.2822503470650828,2.438605560679549,
40168.6,46.19999999999709,-0.01,0.08,0.95,-0.17,-0.05,0.01,40.248988807173774,1.2775034344065808,2.453473322635828,
40168.7,46.299999999995634,-0.04,0.06,0.95,-0.02,0.03,0.06,39.62742232343658,1.3328466013294022,2.429971049179743,
40168.8,46.400000000001455,-0.05,0.05,0.94,-0.01,-0.04,-0.01,38.56994944253881,1.2849806007058735,2.4719283199364717,
40168.9,46.5,-0.09,0.01,0.95,-0.02,-0.00,-0.12,39.14006770561339,1.2448585109929713,2.451326933502823,
