time,ax,ay,az,gx,gy,gz,mx,my,mz,
71338.5,-0.33,0.06,0.91,-0.00,0.02,-0.01,30.26,2.98,-23.44,
71338.6,-0.26,0.08,0.95,-0.00,0.01,-0.01,31.84,3.34,-23.55,
71338.7,-0.26,0.08,0.95,0.00,0.00,-0.00,32.11,2.73,-24.58,
71338.8,-0.25,0.07,0.96,0.01,0.01,-0.00,32.44,3.48,-23.60,
71338.9,-0.26,0.09,0.92,0.00,-0.01,-0.01,32.44,2.47,-25.56,
71339.1,-0.24,0.06,0.94,-0.14,-0.09,-0.04,29.48,3.29,-25.70,
71339.2,-0.23,0.06,0.90,-0.13,-0.08,-0.04,29.96,2.95,-24.82,
71339.3,-0.26,0.01,0.89,-0.11,-0.07,-0.05,28.76,4.49,-24.26,
71339.4,-0.23,-0.08,0.85,-0.09,-0.07,-0.07,29.60,3.31,-25.07,
71339.5,-0.24,0.05,0.95,-0.08,-0.07,-0.10,28.98,3.62,-25.97,
71339.6,-0.25,0.06,0.94,-0.07,-0.07,-0.11,27.26,16.09,-20.82,
71339.7,-0.24,0.07,0.93,-0.07,-0.07,-0.09,27.35,23.10,-19.10,
71339.8,-0.24,0.07,0.93,-0.13,-0.09,-0.04,28.96,3.62,-26.02,
71339.9,-0.24,0.07,0.94,-0.06,-0.04,-0.05,30.76,2.14,-24.26,
71340.1,-0.24,-0.90,0.60,-1.10,-0.35,-0.37,23.21,35.87,-2.84,
71340.2,-0.21,-0.92,0.63,-1.09,-0.36,-0.28,21.25,35.60,1.41,
71340.3,-0.16,-0.95,0.46,-1.07,-0.30,-0.16,21.25,36.27,5.33,
71340.4,-0.19,-0.92,0.64,-1.11,-0.34,-0.45,23.09,36.06,-2.61,
71340.5,-0.13,-0.92,0.66,-1.04,-0.09,0.13,23.25,34.93,-0.88,
71340.6,-0.10,-0.89,0.68,-1.02,0.01,0.23,18.93,38.90,7.50,
71340.7,-0.15,-0.93,0.67,-1.00,0.14,0.24,23.03,35.50,-0.66,
71340.8,-0.10,-0.87,0.67,-1.11,-0.35,-0.41,22.42,37.12,-0.06,
71340.9,-0.23,-0.90,0.61,-0.82,0.29,0.04,18.75,38.59,6.74,
71341.1,-0.11,-0.90,0.35,-0.00,0.12,-0.04,17.57,38.97,5.99,
71341.2,-0.11,-0.90,0.35,-0.00,0.16,-0.02,17.97,39.13,6.15,
71341.3,-0.11,-0.90,0.34,-0.01,0.18,-0.01,18.07,37.79,7.13,
71341.4,-0.05,-0.93,0.27,-0.00,0.13,-0.03,19.24,39.64,6.64,
71341.5,-0.05,-0.92,0.36,-0.03,0.21,-0.01,19.31,38.23,7.04,
71341.6,-0.11,-0.90,0.35,-0.04,0.22,-0.02,18.93,38.85,6.49,
71341.7,-0.12,-0.90,0.35,-0.06,0.21,-0.03,18.57,37.96,6.32,
71341.8,-0.14,-0.91,0.35,-0.06,0.20,-0.03,18.22,37.60,6.90,
71341.9,-0.13,-0.92,0.36,-0.07,0.20,-0.02,16.24,38.97,5.99,
71342.1,-0.09,-0.93,0.37,-0.12,-0.12,0.01,16.72,38.11,6.90,
71342.2,-0.09,-0.93,0.38,-0.12,-0.14,0.00,17.57,39.97,4.68,
71342.3,-0.04,-0.92,0.34,-0.09,-0.25,-0.03,16.07,39.13,6.81,
71342.4,-0.09,-0.93,0.38,-0.08,-0.27,-0.02,16.65,39.02,6.24,
71342.5,-0.08,-0.93,0.38,-0.12,-0.16,-0.01,17.24,38.63,5.99,
71342.6,-0.07,-0.92,0.37,-0.06,-0.31,0.01,16.91,38.97,5.99,
71342.7,-0.07,-0.93,0.37,-0.05,-0.32,0.01,16.91,38.97,7.56,
71342.8,-0.07,-0.92,0.38,-0.05,-0.33,0.02,17.74,40.48,7.46,
71342.9,-0.09,-0.93,0.38,-0.04,-0.33,0.02,16.91,39.64,5.01,
71343.1,-0.02,-0.89,0.34,-0.01,-0.03,-0.05,17.24,38.63,5.01,
71343.2,-0.03,-0.90,0.35,-0.01,-0.04,-0.04,17.49,39.25,5.82,
71343.3,-0.03,-0.88,0.35,-0.01,-0.01,-0.05,17.51,38.90,4.85,
71343.4,-0.11,-0.93,0.32,-0.01,0.00,-0.04,16.74,39.47,6.15,
71343.5,-0.03,-0.91,0.34,-0.01,-0.04,-0.04,18.14,39.06,6.36,
71343.6,-0.04,-0.92,0.34,-0.01,0.03,-0.03,17.72,39.47,5.15,
71343.7,-0.04,-0.91,0.34,-0.01,-0.04,-0.05,17.07,39.47,3.86,
71343.8,-0.04,-0.92,0.34,-0.01,-0.03,-0.05,20.65,36.02,-3.12,
71343.9,-0.03,-0.90,0.34,-0.01,0.04,-0.01,17.36,39.07,4.53,
71344.1,-0.02,-0.58,0.71,2.44,-1.37,0.49,17.54,17.17,-29.11,
71344.2,0.03,-0.52,0.72,2.55,-1.40,0.58,16.74,10.88,-34.39,
71344.3,0.06,-0.05,0.85,2.36,-1.31,0.39,20.24,23.16,-24.75,
71344.4,-0.00,-0.56,0.72,2.31,-1.27,0.33,20.09,22.48,-25.26,
71344.5,0.04,-0.50,0.73,2.26,-1.21,0.27,20.24,24.84,-22.46,
71344.6,0.07,-0.42,0.72,2.51,-1.40,0.56,19.58,20.13,-27.03,
71344.7,0.08,-0.40,0.73,2.14,-1.02,0.20,19.01,19.72,-27.75,
71344.8,0.08,-0.37,0.73,2.07,-0.88,0.17,14.40,-7.95,-34.72,
71344.9,0.00,-0.55,0.71,2.47,-1.39,0.53,18.41,19.29,-28.50,
71345.1,0.23,0.27,0.89,-0.10,-0.03,-0.01,13.34,-6.89,-35.16,
71345.2,0.22,0.25,0.90,-0.09,-0.03,-0.01,13.40,-7.28,-34.39,
71345.3,0.23,0.28,0.89,-0.09,-0.04,-0.01,13.09,-6.97,-34.39,
71345.4,0.20,0.21,0.92,-0.09,-0.04,-0.01,10.73,-6.27,-35.04,
71345.5,0.28,0.30,0.87,-0.04,-0.07,-0.01,12.73,-6.61,-34.39,
71345.6,0.23,0.28,0.88,-0.03,-0.08,-0.00,13.93,-5.64,-34.63,
71345.7,0.20,0.22,0.91,-0.09,-0.05,-0.01,13.93,-7.82,-35.43,
71345.8,0.22,0.29,0.90,-0.03,-0.11,-0.01,14.40,-5.26,-34.72,
71345.9,0.24,0.31,0.90,-0.03,-0.11,-0.01,13.45,-6.85,-35.03,
71346.1,0.17,0.29,0.83,-0.78,0.09,-0.01,14.27,-2.95,-36.46,
71346.2,0.19,0.26,0.88,-0.81,0.07,-0.02,13.08,-5.15,-35.92,
71346.3,0.20,0.25,0.88,-0.85,0.05,-0.05,12.56,-5.09,-35.86,
71346.4,0.03,-0.17,0.93,-0.76,0.10,-0.01,15.31,11.71,-33.85,
71346.5,0.20,0.24,0.88,-0.88,0.04,-0.10,14.26,-3.69,-35.41,
71346.6,0.20,0.24,0.88,-0.92,0.04,-0.14,19.24,20.47,-28.99,
71346.7,0.18,0.22,0.90,-0.94,0.03,-0.15,20.85,27.04,-21.60,
71346.8,0.17,0.20,0.92,-0.95,0.00,-0.16,14.40,-3.58,-35.37,
71346.9,0.16,0.19,0.93,-0.96,-0.03,-0.16,14.07,-5.26,-36.02,
71347.1,-0.10,-0.85,0.69,-0.96,0.25,-0.20,18.40,37.67,-4.35,
71347.2,-0.10,-0.86,0.69,-0.93,0.26,-0.19,18.57,37.62,-4.15,
71347.3,-0.09,-0.84,0.65,-0.82,0.33,-0.19,16.91,38.97,2.72,
71347.4,-0.09,-0.85,0.64,-0.78,0.36,-0.18,16.37,39.41,3.71,
71347.5,-0.09,-0.85,0.63,-0.75,0.39,-0.16,17.74,38.13,-3.00,
71347.6,-0.07,-0.90,0.39,-0.72,0.39,-0.14,17.79,39.09,4.19,
71347.7,-0.09,-0.85,0.62,-0.91,0.27,-0.18,17.48,38.30,-3.09,
71347.8,-0.09,-0.85,0.62,-0.66,0.37,-0.07,16.74,38.80,-3.33,
71347.9,-0.07,-0.86,0.60,-0.64,0.37,-0.05,18.06,38.57,5.72,
71348.1,-0.09,-0.90,0.39,0.01,0.09,0.01,16.57,38.29,3.05,
71348.2,-0.09,-0.90,0.39,0.01,0.08,0.01,16.76,38.42,3.29,
71348.3,-0.09,-0.90,0.38,0.01,0.08,0.01,17.74,39.13,4.84,
71348.4,-0.08,-0.90,0.39,0.01,0.08,0.00,17.57,38.97,4.35,
71348.5,-0.08,-0.90,0.39,0.01,0.07,0.01,18.21,38.80,4.04,
71348.6,-0.08,-0.90,0.39,0.01,0.08,0.01,18.24,37.96,4.68,
71348.7,-0.08,-0.90,0.39,0.01,0.10,0.01,18.91,38.63,3.70,
71348.8,-0.09,-0.91,0.38,0.01,0.11,0.01,18.44,38.63,5.08,
71348.9,-0.09,-0.90,0.38,0.01,0.08,0.00,16.40,38.13,5.50,
71349.1,-0.09,-0.91,0.38,-0.04,-0.02,0.00,19.03,37.16,5.27,
71349.2,-0.10,-0.91,0.39,-0.03,-0.02,0.01,17.24,38.29,5.33,
71349.3,-0.09,-0.90,0.39,-0.03,-0.03,0.02,18.74,37.45,5.17,
71349.4,-0.09,-0.91,0.38,-0.03,-0.02,0.02,18.06,38.37,5.17,
71349.5,-0.09,-0.91,0.39,-0.03,-0.02,0.02,19.93,37.64,-0.47,
71349.6,-0.09,-0.91,0.38,-0.04,-0.03,0.00,17.74,38.80,5.17,
71349.7,-0.09,-0.91,0.38,-0.02,-0.02,0.02,16.68,38.03,5.32,
71349.8,-0.16,-0.60,0.88,-0.02,-0.02,0.01,23.75,27.36,-17.72,
71349.9,-0.13,-0.44,0.85,-0.02,-0.04,0.01,22.92,18.45,-26.38,
71350.1,-0.04,-0.20,0.87,1.68,-0.45,0.32,21.91,15.09,-29.65,
71350.2,-0.04,-0.14,0.85,1.67,-0.43,0.31,20.30,1.14,-31.86,
71350.3,-0.04,-0.19,0.87,1.63,-0.38,0.29,22.31,15.48,-29.04,
71350.4,-0.04,-0.18,0.87,1.60,-0.34,0.28,19.24,-8.46,-34.55,
71350.5,-0.03,-0.11,0.86,1.70,-0.49,0.34,19.32,-8.87,-33.29,
71350.6,-0.04,-0.17,0.87,1.55,-0.26,0.27,20.77,12.78,-31.10,
71350.7,-0.04,-0.16,0.87,1.52,-0.22,0.27,21.41,9.20,-30.47,
71350.8,0.17,0.34,0.93,1.69,-0.47,0.33,15.51,-9.01,-34.30,
71350.9,0.16,0.31,0.92,1.45,-0.15,0.28,21.28,8.55,-30.85,
71351.1,0.18,0.34,0.92,-0.07,-0.08,-0.03,16.24,-7.17,-34.38,
71351.2,0.16,0.33,0.91,-0.07,-0.08,-0.02,14.07,-7.95,-34.72,
71351.3,0.16,0.32,0.91,-0.07,-0.09,-0.03,15.23,-8.46,-35.53,
71351.4,0.16,0.32,0.93,-0.07,-0.10,-0.02,15.20,-7.51,-34.23,
71351.5,0.16,0.32,0.92,-0.06,-0.10,-0.02,15.53,-8.31,-35.10,
71351.6,0.17,0.32,0.92,-0.05,-0.10,-0.01,16.57,-7.78,-33.57,
71351.7,0.17,0.31,0.93,-0.04,-0.09,0.00,15.57,-8.46,-34.55,
71351.8,0.16,0.24,0.82,-0.07,-0.08,-0.02,16.42,-7.94,-34.48,
71351.9,0.17,0.25,0.82,-0.01,-0.06,0.01,16.24,-8.12,-35.53,
71352.1,0.03,-0.06,0.94,-1.29,0.15,-0.55,16.61,6.78,-34.81,
71352.2,0.11,0.10,0.88,-1.30,0.17,-0.57,17.41,0.12,-33.74,
71352.3,0.08,0.08,0.90,-1.27,0.10,-0.52,17.48,1.08,-33.81,
71352.4,0.06,0.07,0.91,-1.36,0.23,-0.60,19.58,26.86,-23.11,
71352.5,0.05,0.04,0.91,-1.39,0.25,-0.60,17.57,2.31,-33.90,
71352.6,0.05,0.02,0.93,-1.41,0.27,-0.59,17.13,3.65,-34.77,
71352.7,0.04,-0.00,0.94,-1.42,0.32,-0.58,17.14,-0.15,-33.47,
71352.8,0.04,-0.03,0.94,-1.28,0.12,-0.54,16.91,4.32,-35.21,
71352.9,0.04,-0.04,0.95,-1.42,0.42,-0.57,16.60,6.44,-34.91,
71353.1,-0.05,-0.92,0.48,-0.48,0.09,-0.29,13.53,40.61,5.88,
71353.2,-0.06,-0.91,0.39,-0.46,0.09,-0.28,15.66,39.88,3.68,
71353.3,-0.04,-0.91,0.37,-0.40,0.09,-0.27,15.90,39.64,4.03,
71353.4,-0.04,-0.92,0.49,-0.50,0.09,-0.30,12.48,40.75,6.87,
71353.5,-0.04,-0.92,0.47,-0.34,0.13,-0.25,14.43,40.82,4.89,
71353.6,-0.05,-0.93,0.50,-0.28,0.18,-0.23,13.23,39.97,7.30,
71353.7,-0.04,-0.92,0.46,-0.26,0.20,-0.22,15.57,39.31,7.30,
71353.8,-0.05,-0.92,0.49,-0.23,0.22,-0.20,14.22,40.98,5.03,
71353.9,-0.03,-0.92,0.35,-0.20,0.26,-0.17,15.23,40.31,3.05,
71354.1,-0.03,-0.93,0.35,-0.02,0.06,-0.01,13.39,39.42,5.82,
71354.2,-0.03,-0.93,0.35,-0.02,0.05,-0.01,13.23,39.30,5.66,
71354.3,-0.03,-0.93,0.35,-0.02,0.04,-0.00,10.56,40.65,7.62,
71354.4,-0.03,-0.91,0.36,-0.02,0.03,-0.00,13.07,40.59,7.35,
71354.5,-0.03,-0.91,0.36,-0.01,0.02,-0.00,13.23,40.65,7.95,
71354.6,-0.03,-0.91,0.36,-0.01,0.02,-0.00,14.18,40.54,7.67,
71354.7,-0.03,-0.93,0.36,-0.01,0.03,-0.01,13.23,40.65,7.81,
71354.8,-0.04,-0.93,0.35,-0.01,0.03,-0.00,13.23,40.65,7.30,
71354.9,-0.03,-0.93,0.36,-0.02,0.06,-0.01,14.54,40.19,5.68,
71355.1,-0.11,-0.87,0.61,0.76,-0.16,0.51,15.40,40.14,3.21,
71355.2,-0.11,-0.88,0.51,0.77,-0.18,0.52,19.95,37.76,-3.75,
71355.3,-0.11,-0.88,0.50,1.77,-0.35,0.74,15.60,39.87,3.01,
71355.4,-0.11,-0.88,0.51,0.75,-0.14,0.51,16.40,38.80,2.23,
71355.5,-0.11,-0.88,0.54,0.82,-0.32,0.53,16.56,38.95,1.78,
71355.6,-0.11,-0.88,0.54,0.83,-0.34,0.53,23.92,12.06,-28.67,
71355.7,-0.10,-0.87,0.56,0.84,-0.39,0.53,16.74,39.13,1.25,
71355.8,-0.11,-0.87,0.59,0.85,-0.42,0.52,17.10,39.01,0.43,
71355.9,-0.11,-0.87,0.60,0.76,-0.15,0.51,19.74,-6.61,-32.76,
71356.1,0.10,0.34,0.82,0.10,-0.27,0.13,17.07,-7.62,-32.10,
71356.2,0.11,0.33,0.84,0.11,-0.27,0.14,17.74,-10.31,-33.08,
71356.3,0.10,0.32,0.85,0.06,-0.25,0.10,16.74,-8.96,-34.39,
71356.4,0.11,0.33,0.86,0.05,-0.24,0.09,16.97,-8.96,-32.57,
71356.5,0.11,0.33,0.88,0.05,-0.22,0.09,17.16,-9.35,-32.12,
71356.6,0.11,0.33,0.88,0.05,-0.20,0.08,17.07,-8.96,-31.77,
71356.7,0.11,0.33,0.88,0.05,-0.18,0.07,17.84,-8.50,-31.92,
71356.8,0.12,0.33,0.88,0.05,-0.15,0.06,17.91,-8.79,-32.92,
71356.9,0.12,0.32,0.90,0.05,-0.12,0.06,17.91,-9.13,-34.23,
71357.1,0.13,0.35,0.90,0.09,0.08,-0.02,18.24,-9.47,-33.57,
71357.2,0.13,0.32,0.87,0.10,0.08,-0.04,18.62,-9.52,-32.03,
71357.3,0.13,0.31,0.87,0.11,0.08,-0.05,17.75,-9.63,-33.41,
71357.4,0.13,0.30,0.85,0.09,0.09,-0.02,17.74,-3.58,-34.39,
71357.5,0.13,0.31,0.85,0.11,0.08,-0.07,18.24,4.40,-32.83,
71357.6,0.13,0.31,0.85,0.11,0.09,-0.08,17.39,-9.65,-33.12,
71357.7,0.13,0.31,0.85,0.10,0.11,-0.09,17.07,-9.97,-34.06,
71357.8,0.13,0.32,0.86,0.09,0.13,-0.10,19.51,24.55,-24.65,
71357.9,0.13,0.31,0.84,0.08,0.14,-0.11,17.07,-9.79,-33.62,
71358.1,-0.21,-0.80,0.82,-1.42,0.53,-0.60,17.84,36.18,-8.21,
71358.2,-0.21,-0.79,0.81,-1.37,0.55,-0.55,17.74,33.13,-14.41,
71358.3,-0.21,-0.78,0.83,-1.31,0.58,-0.51,17.74,35.10,-13.14,
71358.4,-0.00,-0.93,0.59,-1.25,0.60,-0.48,14.54,40.31,2.67,
71358.5,-0.05,-0.90,0.46,-1.44,0.53,-0.62,17.95,35.39,-12.93,
71358.6,-0.21,-0.79,0.81,-1.17,0.63,-0.41,18.57,36.27,-12.32,
71358.7,-0.21,-0.77,0.76,-1.11,0.67,-0.33,13.14,40.96,5.95,
71358.8,-0.20,-0.76,0.73,-1.08,0.68,-0.29,17.81,36.36,-10.74,
71358.9,-0.21,-0.79,0.82,-1.06,0.68,-0.25,17.07,36.44,-9.21,
71359.1,0.00,-0.91,0.37,-0.01,0.01,-0.01,12.76,40.39,5.76,
71359.2,-0.01,-0.91,0.37,-0.01,0.01,-0.01,14.23,40.98,5.66,
71359.3,0.01,-0.91,0.37,-0.01,0.02,-0.00,13.99,41.06,5.42,
71359.4,0.00,-0.91,0.37,-0.01,-0.00,-0.00,13.40,41.15,6.48,
71359.5,-0.01,-0.91,0.36,-0.00,0.02,0.00,13.73,41.15,5.17,
71359.6,0.00,-0.91,0.36,-0.01,0.02,0.01,13.23,39.65,5.66,
71359.7,0.00,-0.91,0.36,-0.01,0.01,0.00,15.23,40.98,6.32,
71359.8,0.00,-0.91,0.36,-0.01,0.01,-0.00,13.46,40.98,5.91,
71359.9,0.00,-0.91,0.37,-0.01,-0.00,-0.00,12.58,40.28,5.98,
71360.1,-0.17,-0.95,0.77,1.38,-0.44,0.85,16.07,41.15,2.23,
71360.2,-0.17,-0.94,0.77,1.54,-0.48,0.93,16.55,39.44,1.75,
71360.3,-0.18,-0.95,0.76,1.62,-0.50,0.97,16.74,38.80,1.57,
71360.4,-0.15,-0.35,0.84,1.70,-0.53,1.01,24.68,16.61,-26.89,
71360.5,-0.16,-0.93,0.76,1.78,-0.57,1.06,16.90,38.64,-1.07,
71360.6,-0.20,-0.95,0.76,1.42,-0.45,0.87,22.08,1.07,-31.15,
71360.7,-0.20,-0.95,0.77,1.92,-0.67,1.14,21.08,-3.24,-31.12,
71360.8,-0.19,-0.94,0.76,1.99,-0.72,1.17,16.98,38.64,-1.44,
71360.9,-0.17,-0.94,0.77,2.05,-0.77,1.19,18.91,-6.77,-33.25,
71361.1,0.13,0.37,0.85,0.05,0.10,0.06,18.69,-10.50,-32.47,
71361.2,0.13,0.37,0.85,0.06,0.10,0.07,17.43,-9.94,-33.17,
71361.3,0.13,0.36,0.86,0.02,0.09,0.04,18.57,-8.46,-32.28,
71361.4,0.09,0.34,0.91,0.01,0.08,0.03,18.55,-10.73,-32.54,
71361.5,0.11,0.36,0.92,-0.01,0.05,0.02,16.91,-11.48,-33.57,
71361.6,0.12,0.36,0.86,-0.03,0.04,0.01,18.14,-7.63,-33.40,
71361.7,0.13,0.37,0.84,0.06,0.10,0.07,17.30,-10.88,-33.38,
71361.8,0.13,0.37,0.87,-0.07,0.03,0.00,18.24,-9.47,-32.92,
71361.9,0.12,0.37,0.87,-0.07,0.02,-0.00,16.09,-9.08,-35.07,
71362.1,0.11,0.31,0.83,0.07,0.05,0.03,16.24,-9.13,-33.90,
71362.2,0.13,0.31,0.82,0.01,0.02,0.05,16.28,-9.08,-33.40,
71362.3,0.13,0.16,0.78,-0.01,0.01,0.05,18.24,-5.43,-33.25,
71362.4,0.14,0.32,0.82,-0.03,-0.01,0.05,16.40,-8.96,-32.10,
71362.5,0.11,0.30,0.85,-0.06,-0.01,0.04,16.99,-8.54,-33.01,
71362.6,0.15,0.32,0.83,0.06,0.04,0.04,19.41,17.61,-28.50,
71362.7,0.15,0.31,0.83,-0.12,0.00,0.01,17.57,-8.12,-33.90,
71362.8,0.15,0.30,0.83,-0.13,0.01,0.01,18.07,33.75,-16.08,
71362.9,0.14,0.29,0.82,-0.15,0.01,0.00,17.31,-8.12,-35.20,
71363.1,-0.03,-0.91,0.60,-1.14,0.66,-0.55,14.24,40.30,-2.04,
71363.2,-0.04,-0.92,0.61,-1.04,0.60,-0.46,13.90,42.33,5.01,
71363.3,-0.05,-0.92,0.59,-0.99,0.57,-0.42,14.07,40.48,-1.37,
71363.4,0.00,-0.94,0.39,-0.94,0.56,-0.39,14.07,40.48,-0.18,
71363.5,-0.05,-0.92,0.59,-0.90,0.55,-0.37,11.73,40.48,7.46,
71363.6,-0.04,-0.95,0.57,-1.11,0.64,-0.53,14.07,40.48,0.27,
71363.7,-0.04,-0.94,0.56,-0.82,0.54,-0.34,13.23,39.97,1.08,
71363.8,-0.05,-0.92,0.55,-0.77,0.53,-0.32,13.23,39.64,4.35,
71363.9,-0.05,-0.93,0.55,-0.72,0.51,-0.29,14.40,41.15,7.79,
71364.1,0.00,-0.92,0.34,-0.05,0.01,-0.04,13.06,40.48,6.48,
71364.2,0.00,-0.92,0.35,-0.06,0.01,-0.05,12.50,40.75,7.24,
71364.3,-0.01,-0.93,0.35,-0.06,0.01,-0.05,13.39,40.81,5.84,
71364.4,-0.00,-0.92,0.35,-0.06,0.01,-0.05,12.56,41.99,7.30,
71364.5,-0.00,-0.92,0.34,-0.06,0.01,-0.06,13.26,40.18,6.86,
71364.6,-0.00,-0.92,0.35,-0.05,0.01,-0.04,13.40,40.76,5.92,
71364.7,-0.01,-0.93,0.35,-0.06,0.01,-0.05,13.40,39.81,7.46,
71364.8,0.00,-0.92,0.36,-0.06,0.01,-0.05,12.73,42.50,8.44,
71364.9,-0.00,-0.92,0.34,-0.06,0.01,-0.06,13.07,40.47,7.35,
71365.1,-0.08,-0.94,0.57,0.81,-0.39,0.54,14.82,41.50,5.95,
71365.2,-0.09,-0.94,0.62,0.86,-0.41,0.56,18.91,37.28,-6.76,
71365.3,-0.10,-0.94,0.63,0.91,-0.44,0.58,13.57,38.97,5.33,
71365.4,-0.11,-0.96,0.65,0.97,-0.48,0.62,14.31,39.27,3.87,
71365.5,-0.07,-0.94,0.56,1.00,-0.50,0.64,21.41,11.56,-31.12,
71365.6,-0.12,-0.96,0.66,1.10,-0.59,0.71,15.23,39.64,2.06,
71365.7,-0.12,-0.97,0.67,0.79,-0.38,0.53,18.09,-3.59,-34.62,
71365.8,-0.10,-0.94,0.73,1.23,-0.76,0.77,16.25,39.17,2.34,
71365.9,-0.09,-0.94,0.74,1.30,-0.83,0.79,17.07,38.80,2.56,
71366.1,0.22,0.40,0.85,-0.04,0.10,-0.01,12.90,-10.48,-34.23,
71366.2,0.22,0.40,0.86,-0.05,0.09,0.01,12.90,-11.48,-35.21,
71366.3,0.22,0.39,0.86,-0.01,0.10,-0.03,12.63,-10.86,-33.90,
71366.4,0.24,0.39,0.86,-0.08,0.07,0.03,12.90,-9.80,-34.55,
71366.5,0.24,0.40,0.85,-0.08,0.06,0.03,12.40,-10.31,-32.76,
71366.6,0.23,0.40,0.85,-0.10,0.05,0.02,12.03,-10.41,-34.16,
71366.7,0.23,0.40,0.85,-0.02,0.10,-0.03,12.52,-10.70,-35.16,
71366.8,0.23,0.40,0.85,-0.03,0.10,-0.02,12.56,-10.81,-35.86,
71366.9,0.22,0.40,0.85,-0.10,0.01,-0.02,12.42,-7.31,-35.75,
71367.1,0.23,0.23,0.75,-1.06,0.32,-0.39,14.07,0.46,-36.35,
71367.2,0.22,0.22,0.74,-1.13,0.34,-0.40,12.48,-5.20,-36.62,
71367.3,0.20,0.21,0.73,-1.17,0.35,-0.41,12.73,-4.59,-36.02,
71367.4,0.21,0.16,0.73,-1.30,0.40,-0.45,16.57,26.52,-25.07,
71367.5,0.21,0.15,0.74,-0.97,0.31,-0.38,12.45,-4.88,-36.84,
71367.6,0.19,0.10,0.73,-1.40,0.45,-0.49,15.03,38.18,-6.86,
71367.7,-0.05,-0.95,0.63,-1.00,0.31,-0.38,11.89,-2.07,-36.84,
71367.8,-0.05,-0.94,0.57,-1.03,0.32,-0.39,12.13,-1.79,-36.79,
71367.9,0.18,0.08,0.73,-1.58,0.54,-0.60,11.23,41.99,6.32,
71368.1,-0.01,-0.92,0.38,-0.04,0.23,-0.07,10.31,41.93,7.83,
71368.2,-0.01,-0.92,0.38,-0.05,0.19,-0.07,10.06,40.82,8.44,
71368.3,-0.01,-0.92,0.37,-0.05,0.15,-0.06,11.06,41.49,7.46,
71368.4,-0.00,-0.93,0.41,-0.05,0.13,-0.06,11.00,41.43,7.52,
71368.5,-0.00,-0.92,0.40,-0.05,0.12,-0.06,10.39,40.82,8.11,
71368.6,-0.00,-0.93,0.39,-0.05,0.11,-0.05,10.93,41.79,8.89,
71368.7,-0.01,-0.93,0.39,-0.05,0.10,-0.04,9.79,41.25,7.69,
71368.8,-0.01,-0.92,0.39,-0.04,0.23,-0.07,10.56,41.32,8.28,
71368.9,-0.01,-0.92,0.39,-0.05,0.07,-0.04,9.22,41.66,7.30,
71369.1,0.00,-0.94,0.35,-0.02,0.03,-0.03,10.39,41.15,8.77,
71369.2,0.01,-0.94,0.34,-0.02,0.02,-0.03,9.09,42.16,10.69,
71369.3,0.00,-0.94,0.34,-0.01,0.02,-0.04,10.55,41.94,9.23,
71369.4,-0.01,-0.94,0.34,-0.02,0.02,-0.03,10.39,42.16,10.08,
71369.5,-0.01,-0.93,0.34,-0.01,0.03,-0.04,9.46,42.29,10.47,
71369.7,-0.01,-0.92,0.34,-0.01,-0.00,-0.03,9.22,42.33,10.57,
71369.9,-0.01,-0.93,0.34,-0.01,-0.02,-0.03,10.98,40.83,9.91,
71373.5,-0.02,-0.94,0.34,0.01,-0.15,0.07,10.22,39.97,9.59,
71373.6,-0.01,-0.93,0.35,0.13,-0.27,0.18,12.53,40.53,6.02,
71373.7,-0.07,-0.96,0.48,0.31,-0.49,0.32,16.40,39.47,1.25,
71373.8,-0.10,-0.42,0.81,2.11,-0.24,0.80,16.40,-10.31,-34.72,
71373.9,0.18,0.46,0.76,-0.06,-0.02,-0.00,18.41,21.64,-26.87,
71374.1,0.17,0.38,0.89,-0.06,-0.05,0.02,11.56,41.66,5.66,
71374.2,0.17,0.38,0.89,-0.05,-0.06,0.02,11.60,41.44,5.45,
71374.3,0.16,0.39,0.89,-0.05,-0.05,0.02,12.05,41.23,4.85,
71374.4,0.16,0.39,0.88,-0.05,-0.05,0.03,11.73,40.82,4.84,
71374.5,0.16,0.38,0.88,-0.04,-0.05,0.03,14.23,39.64,0.76,
71374.6,0.16,0.39,0.87,-0.04,-0.05,0.03,11.89,42.33,4.03,
71374.7,0.15,0.39,0.87,-0.03,-0.05,0.02,11.27,41.71,3.91,
71374.8,0.15,0.39,0.88,-0.02,-0.05,0.02,11.06,41.49,3.86,
71374.9,0.16,0.39,0.88,-0.01,-0.05,0.01,11.39,40.82,3.21,
71375.1,0.15,0.39,0.85,0.19,0.04,0.13,16.65,-9.01,-33.59,
71375.2,0.15,0.36,0.80,0.16,0.07,0.13,17.24,-9.13,-33.25,
71375.3,0.14,0.36,0.85,0.13,0.05,0.13,16.40,-8.96,-33.74,
71375.4,0.13,0.35,0.86,0.14,0.05,0.13,18.03,-9.29,-33.74,
71375.5,0.14,0.36,0.85,0.19,0.02,0.14,16.49,-9.58,-33.85,
71375.6,0.14,0.36,0.85,0.10,0.01,0.12,18.07,-9.30,-33.74,
71375.7,0.15,0.37,0.86,0.08,0.00,0.11,16.04,-7.56,-33.83,
71375.8,0.15,0.37,0.87,0.08,-0.00,0.10,17.35,-8.86,-34.16,
71375.9,0.11,0.25,0.81,0.07,-0.01,0.09,18.56,-7.10,-34.22,
71376.1,0.07,0.18,0.89,-0.90,0.12,-0.34,19.58,0.96,-33.90,
71376.2,0.05,0.17,0.89,-0.92,0.14,-0.36,19.22,7.37,-32.80,
71376.3,0.04,0.16,0.88,-0.95,0.15,-0.39,18.50,-1.04,-34.83,
71376.4,0.04,0.14,0.89,-0.97,0.14,-0.40,19.96,19.27,-26.88,
71376.5,0.04,0.13,0.89,-0.98,0.14,-0.41,17.74,-0.89,-34.39,
71376.6,0.04,0.12,0.88,-1.00,0.13,-0.41,19.00,32.09,-17.43,
71376.7,0.04,0.11,0.90,-0.89,0.12,-0.33,19.24,-0.38,-35.53,
71376.8,0.04,0.11,0.91,-1.05,0.15,-0.41,18.57,-1.20,-34.77,
71376.9,0.04,0.11,0.91,-1.06,0.16,-0.41,19.43,0.36,-34.63,
71377.1,-0.06,-0.92,0.50,-0.41,0.28,-0.18,10.89,41.32,4.68,
71377.2,-0.03,-0.91,0.44,-0.40,0.28,-0.17,11.39,41.00,4.50,
71377.3,-0.06,-0.92,0.50,-0.36,0.27,-0.13,11.56,40.65,5.01,
71377.4,-0.02,-0.92,0.41,-0.43,0.28,-0.20,10.83,41.68,6.59,
71377.5,-0.06,-0.92,0.49,-0.34,0.26,-0.11,11.56,41.40,4.46,
71377.6,-0.06,-0.91,0.48,-0.31,0.22,-0.08,11.56,41.99,4.03,
71377.7,-0.05,-0.90,0.46,-0.29,0.19,-0.07,11.56,41.44,4.57,
71377.8,-0.04,-0.89,0.45,-0.28,0.19,-0.07,11.23,41.99,5.99,
71377.9,-0.04,-0.90,0.44,-0.27,0.19,-0.07,11.56,41.32,4.68,
71378.1,-0.02,-0.91,0.37,-0.03,-0.01,-0.01,11.39,40.14,8.44,
71378.2,-0.04,-0.92,0.37,-0.03,-0.01,-0.01,12.06,40.14,9.09,
71378.3,-0.03,-0.91,0.37,-0.03,-0.01,-0.01,12.46,41.08,6.87,
71378.4,-0.02,-0.91,0.37,-0.03,-0.01,-0.01,11.54,41.05,7.24,
71378.5,-0.02,-0.91,0.37,-0.03,-0.01,-0.01,11.37,40.37,7.81,
71378.6,-0.03,-0.91,0.36,-0.03,-0.00,-0.02,14.43,40.78,2.65,
71378.7,-0.03,-0.91,0.37,-0.04,-0.01,-0.00,11.66,41.97,8.20,
71378.8,-0.03,-0.91,0.37,-0.04,-0.02,-0.00,11.39,42.16,8.77,
71378.9,-0.03,-0.91,0.37,-0.04,-0.03,-0.00,20.73,31.30,-16.15,
71379.1,-0.16,-0.52,0.91,2.57,-0.48,0.90,23.75,12.23,-29.49,
71379.2,-0.16,-0.48,0.91,2.55,-0.50,0.89,21.82,1.88,-31.84,
71379.3,-0.12,-0.33,0.84,2.49,-0.55,0.88,22.58,18.11,-27.69,
71379.4,-0.13,-0.24,0.87,2.47,-0.59,0.87,18.74,-6.94,-33.41,
71379.5,-0.13,-0.22,0.85,2.40,-0.62,0.86,22.48,17.56,-27.69,
71379.6,-0.13,-0.19,0.82,2.37,-0.62,0.86,18.07,-7.28,-33.74,
71379.7,-0.13,-0.17,0.80,2.30,-0.63,0.86,23.92,20.80,-25.40,
71379.8,0.10,0.36,0.92,2.24,-0.65,0.85,22.03,14.28,-27.80,
71379.9,0.10,0.24,0.92,2.58,-0.46,0.90,18.41,-6.61,-34.39,
71380.1,0.14,0.30,0.93,-0.07,0.00,-0.05,16.24,-7.03,-34.59,
71380.2,0.14,0.28,0.81,-0.08,-0.02,-0.02,16.74,-6.27,-33.08,
71380.3,0.14,0.30,0.93,-0.06,0.00,-0.07,16.24,-6.44,-34.88,
71380.4,0.14,0.30,0.93,-0.04,-0.01,-0.07,16.24,-6.45,-34.86,
71380.5,0.12,0.29,0.92,-0.08,-0.01,-0.03,16.40,-6.61,-34.39,
71380.6,0.11,0.29,0.93,-0.07,-0.00,-0.04,17.42,9.61,-33.57,
71380.7,0.12,0.29,0.92,0.02,-0.01,-0.02,15.90,-6.51,-33.89,
71380.8,0.12,0.30,0.93,0.03,-0.00,-0.01,15.57,-6.44,-33.57,
71380.9,0.12,0.30,0.92,0.04,0.01,-0.01,17.91,32.58,-18.72,
71381.1,-0.02,-0.75,0.70,-1.05,0.43,-0.45,15.57,34.59,-16.57,
71381.2,-0.01,-0.82,0.60,-1.03,0.45,-0.45,15.23,36.27,-14.61,
71381.3,-0.05,-0.72,0.77,-0.97,0.47,-0.38,12.40,42.50,-2.35,
71381.4,-0.05,-0.72,0.80,-0.97,0.45,-0.36,13.23,37.28,-12.32,
71381.5,-0.05,-0.72,0.80,-0.96,0.44,-0.35,10.73,41.15,4.52,
71381.6,-0.00,-0.94,0.45,-0.97,0.42,-0.35,10.89,42.33,6.32,
71381.7,-0.05,-0.72,0.79,-0.19,0.17,-0.08,13.34,37.82,-11.59,
71381.8,-0.00,-0.71,0.69,0.07,0.17,0.02,13.79,37.97,-10.95,
71381.9,-0.02,-0.74,0.71,-1.01,0.46,-0.44,10.20,41.03,8.58,
71382.1,-0.02,-0.92,0.34,0.07,0.02,0.10,10.73,41.15,8.77,
71382.2,-0.02,-0.91,0.33,0.08,0.03,0.10,11.56,41.99,8.28,
71382.3,-0.01,-0.93,0.34,0.08,0.02,0.10,10.89,41.32,7.30,
71382.4,-0.01,-0.93,0.36,-0.07,-0.03,-0.06,10.79,41.37,7.91,
71382.5,-0.02,-0.91,0.34,0.03,-0.06,0.10,9.89,40.31,7.62,
71382.6,-0.02,-0.91,0.34,0.03,-0.09,0.09,9.72,41.82,8.44,
71382.7,-0.03,-0.93,0.36,0.03,-0.11,0.09,10.82,42.59,8.05,
71382.8,-0.02,-0.91,0.35,0.03,-0.11,0.09,11.23,39.64,9.26,
71382.9,-0.02,-0.92,0.34,0.03,-0.11,0.09,11.06,40.82,7.79,
71383.1,-0.01,-0.93,0.34,-0.03,-0.09,0.03,11.83,40.74,8.65,
71383.2,-0.02,-0.93,0.34,-0.03,-0.08,0.03,10.89,39.97,8.93,
71383.3,-0.06,-0.94,0.42,0.05,-0.28,0.05,10.98,40.02,8.68,
71383.4,-0.01,-0.93,0.34,-0.06,-0.09,0.02,11.52,40.29,7.07,
71383.5,-0.02,-0.93,0.34,-0.07,-0.09,0.01,11.96,41.79,6.12,
71383.6,-0.02,-0.93,0.34,-0.07,-0.09,0.01,11.02,40.72,7.89,
71383.7,-0.01,-0.92,0.35,-0.07,-0.09,0.01,10.22,41.32,9.26,
71383.9,-0.01,-0.94,0.34,-0.07,-0.10,0.02,11.31,40.88,8.83,
71384.1,-0.12,-0.99,0.87,2.66,-0.46,1.16,16.40,39.47,1.25,
71384.2,-0.12,-0.98,0.90,1.91,-0.71,1.15,16.97,39.09,-0.41,
71384.3,-0.13,-0.97,0.91,2.07,-0.64,1.18,22.42,18.62,-26.87,
71384.4,-0.13,-0.95,0.92,2.31,-0.57,1.23,17.41,38.80,-1.70,
71384.5,-0.00,0.04,0.70,2.40,-0.54,1.23,18.61,37.58,-3.40,
71384.6,0.16,0.29,0.72,2.47,-0.50,1.22,16.57,-5.77,-33.25,
71384.7,-0.14,-0.93,0.91,2.51,-0.48,1.21,18.91,37.28,-3.82,
71384.8,-0.15,-0.85,0.89,2.57,-0.46,1.19,14.77,-7.99,-34.82,
71384.9,-0.17,-0.84,0.88,2.60,-0.46,1.18,15.94,-9.25,-35.60,
71385.1,0.14,0.33,0.88,-0.12,-0.00,-0.04,15.07,-6.61,-34.39,
71385.2,0.14,0.33,0.88,-0.12,-0.02,-0.03,16.57,-8.46,-34.55,
71385.3,0.17,0.27,0.95,-0.12,0.00,-0.04,14.73,-5.26,-34.72,
71385.4,0.24,0.26,0.84,-0.13,-0.03,-0.00,14.83,-6.25,-34.66,
71385.5,0.17,0.28,0.78,-0.14,-0.04,0.01,14.73,-6.94,-36.02,
71385.6,0.14,0.33,0.88,-0.14,-0.04,0.01,13.99,-6.12,-34.24,
71385.7,0.15,0.33,0.87,-0.13,-0.04,0.01,17.41,-7.95,-35.37,
71385.8,0.15,0.30,0.90,-0.13,-0.07,0.02,15.07,-8.29,-33.41,
71385.9,0.14,0.33,0.88,-0.11,-0.09,0.01,17.17,3.51,-34.94,
71386.1,0.05,-0.04,0.92,-1.22,0.36,-0.57,17.41,8.86,-33.41,
71386.2,0.05,-0.04,0.92,-1.23,0.36,-0.57,17.61,9.07,-33.55,
71386.3,0.04,-0.05,0.93,-1.24,0.36,-0.56,17.85,23.95,-26.11,
71386.4,0.03,-0.07,0.94,-1.28,0.35,-0.53,18.57,10.04,-34.23,
71386.5,0.03,-0.09,0.96,-1.28,0.35,-0.53,18.23,11.07,-33.36,
71386.6,0.03,-0.12,0.95,-1.29,0.33,-0.53,15.14,34.96,-14.72,
71386.7,0.03,-0.13,0.96,-1.30,0.30,-0.54,17.74,12.56,-32.10,
71386.8,-0.02,-0.82,0.63,-1.09,0.41,-0.50,17.74,14.80,-33.03,
71386.9,-0.02,-0.87,0.57,-1.21,0.35,-0.58,12.08,40.79,-1.55,
71387.1,-0.02,-0.91,0.51,-0.66,0.39,-0.35,10.23,41.65,4.67,
71387.2,-0.02,-0.91,0.51,-0.61,0.40,-0.32,10.26,42.41,2.24,
71387.3,-0.03,-0.92,0.50,-0.58,0.39,-0.30,9.06,42.50,9.75,
71387.4,-0.02,-0.93,0.49,-0.55,0.38,-0.27,11.09,42.24,4.24,
71387.5,-0.02,-0.93,0.37,-0.54,0.37,-0.26,10.89,41.66,4.68,
71387.6,-0.01,-0.92,0.36,-0.52,0.36,-0.26,9.39,40.14,10.40,
71387.7,-0.01,-0.93,0.35,-0.49,0.36,-0.25,10.44,41.50,4.53,
71387.8,-0.02,-0.93,0.49,-0.47,0.37,-0.23,10.56,39.30,7.95,
71387.9,-0.02,-0.91,0.52,-0.44,0.38,-0.21,10.06,41.15,7.79,
71388.1,-0.02,-0.92,0.35,-0.11,-0.08,-0.04,10.55,41.31,8.50,
71388.2,-0.02,-0.92,0.36,-0.10,-0.09,-0.05,10.89,41.99,8.93,
71388.3,-0.02,-0.92,0.36,-0.11,-0.09,-0.04,10.70,41.67,8.62,
71388.4,-0.03,-0.93,0.36,-0.10,-0.08,-0.03,9.56,40.31,8.28,
71388.5,-0.02,-0.93,0.35,-0.09,-0.07,-0.02,10.56,41.99,8.60,
71388.6,-0.02,-0.94,0.36,-0.09,-0.07,-0.02,8.75,42.23,10.26,
71388.7,-0.02,-0.94,0.36,-0.08,-0.07,-0.02,7.72,42.07,11.32,
71388.8,0.00,-0.93,0.36,-0.07,-0.06,-0.02,10.73,41.49,8.44,
71388.9,-0.13,-0.99,0.52,0.39,-0.76,0.43,8.78,41.18,9.36,
71389.1,-0.23,-1.06,0.98,1.64,-0.73,1.04,16.62,37.27,-2.37,
71389.2,-0.10,-0.99,0.89,3.66,-1.22,1.80,12.01,41.03,5.30,
71389.3,-0.10,-0.99,0.88,1.50,-0.88,1.02,13.40,40.14,4.19,
71389.4,-0.16,-1.00,0.92,1.57,-0.81,1.03,19.34,4.47,-32.72,
71389.5,-0.19,-1.01,0.93,2.11,-0.37,1.11,13.75,40.21,3.29,
71389.6,-0.21,-1.01,0.94,2.23,-0.38,1.14,14.23,40.31,2.06,
71389.7,0.18,0.38,0.81,2.35,-0.42,1.16,15.74,-10.31,-34.72,
71389.8,0.18,0.41,0.89,2.44,-0.49,1.20,15.18,39.67,0.98,
71389.9,-0.22,-1.04,0.94,2.56,-0.58,1.24,16.24,38.97,-0.22,
71390.1,0.18,0.36,0.90,-0.07,-0.02,0.03,14.57,-6.77,-35.21,
71390.2,0.17,0.29,0.93,-0.07,-0.02,0.04,14.07,-9.30,-37.01,
71390.3,0.13,0.28,0.91,-0.05,-0.02,0.04,14.61,-6.76,-35.61,
71390.4,0.13,0.26,0.91,-0.04,-0.03,0.02,15.15,-6.69,-35.57,
71390.5,0.19,0.35,0.90,-0.05,-0.04,-0.02,14.90,-5.43,-34.88,
71390.6,0.18,0.36,0.90,-0.05,-0.04,-0.04,14.33,-7.97,-34.95,
71390.7,0.18,0.37,0.90,-0.06,-0.03,-0.05,14.81,-6.39,-34.79,
71390.8,0.18,0.36,0.90,-0.09,-0.02,-0.00,15.57,-6.12,-34.27,
71390.9,0.18,0.20,0.71,-0.08,-0.02,0.01,14.57,-6.80,-35.19,
71391.1,0.03,0.06,0.93,-1.14,0.16,-0.52,18.65,2.35,-34.31,
71391.2,0.01,-0.02,1.04,-1.30,0.32,-0.62,17.92,7.75,-33.58,
71391.3,0.08,0.16,0.83,-1.18,0.15,-0.53,15.91,-2.25,-34.47,
71391.4,0.07,0.12,0.84,-1.25,0.15,-0.52,15.40,-1.56,-34.39,
71391.5,0.10,0.18,0.81,-1.25,0.15,-0.51,16.10,-1.33,-34.85,
71391.6,0.06,0.08,0.90,-1.27,0.17,-0.52,17.41,-4.25,-34.72,
71391.7,0.09,0.16,0.81,-1.10,0.18,-0.51,19.08,31.40,-16.73,
71391.8,0.03,0.07,0.93,-1.12,0.17,-0.52,16.52,-1.07,-35.01,
71391.9,-0.07,-0.89,0.63,-1.30,0.24,-0.58,15.90,39.97,-6.11,
71392.1,-0.06,-0.95,0.51,-1.13,0.72,-0.59,11.23,41.66,6.32,
71392.2,-0.04,-0.92,0.46,-0.15,0.51,-0.09,10.89,41.99,8.28,
71392.3,-0.07,-0.96,0.56,-1.08,0.70,-0.56,11.89,41.99,3.05,
71392.4,-0.07,-0.96,0.54,-1.02,0.68,-0.54,8.28,42.05,10.57,
71392.5,-0.08,-0.96,0.54,-0.88,0.59,-0.46,10.22,39.97,2.72,
71392.6,-0.08,-0.95,0.53,-0.85,0.57,-0.44,10.22,40.45,3.55,
71392.7,-0.07,-0.95,0.57,-0.82,0.54,-0.42,7.17,42.47,10.14,
71392.8,-0.07,-0.96,0.56,-0.73,0.47,-0.37,10.22,41.66,5.66,
71392.9,-0.07,-0.95,0.52,-1.18,0.74,-0.62,10.77,41.66,6.02,
71393.1,-0.07,-0.91,0.49,0.69,-0.01,0.21,8.72,40.82,5.82,
71393.2,-0.06,-0.92,0.51,0.70,0.01,0.22,10.68,41.44,0.27,
71393.3,-0.07,-0.91,0.50,0.75,0.05,0.26,7.82,43.33,7.94,
71393.4,-0.14,-0.73,0.80,0.77,0.06,0.27,7.44,43.09,8.37,
71393.5,-0.19,-0.56,0.86,0.78,0.06,0.28,15.46,37.31,-11.41,
71393.6,-0.08,-0.90,0.47,0.79,0.06,0.29,8.20,42.14,7.29,
71393.7,-0.08,-0.90,0.47,0.79,0.05,0.30,7.39,41.49,7.13,
71393.8,-0.20,-0.90,0.40,0.79,-0.15,0.32,16.40,27.03,-24.58,
71393.9,-0.07,-0.91,0.50,0.79,-0.44,0.32,8.17,41.09,6.37,
71394.1,-0.16,-0.05,0.99,0.59,-0.07,0.32,19.66,20.05,-27.11,
71394.2,-0.21,-0.07,1.00,0.62,0.09,0.44,19.74,19.96,-26.22,
71394.3,-0.18,-0.06,1.00,0.58,-0.25,0.23,22.53,15.53,-29.15,
71394.4,-0.23,0.20,0.89,0.59,-0.16,0.28,19.58,20.13,-28.02,
71394.5,-0.18,-0.02,0.89,0.59,0.12,0.51,24.09,11.56,-28.50,
71394.6,-0.18,-0.04,0.88,0.45,0.22,0.57,20.75,19.63,-28.18,
71394.7,-0.18,0.01,0.84,0.39,0.16,0.58,25.71,10.80,-28.34,
71394.8,-0.18,0.04,0.89,0.33,0.11,0.54,27.60,8.56,-28.62,
71394.9,-0.19,0.00,0.93,0.25,0.08,0.43,20.58,18.11,-29.65,
71395.1,-0.29,0.04,1.05,-0.42,0.29,0.52,27.93,8.02,-26.38,
71395.2,-0.27,0.02,1.04,-0.43,0.30,0.62,29.93,5.67,-24.42,
71395.3,-0.27,0.01,1.03,-0.43,0.31,0.66,27.76,8.90,-26.18,
71395.4,-0.27,-0.01,1.04,-0.42,0.30,0.82,32.22,-6.49,-24.09,
71395.5,-0.26,-0.02,1.06,-0.37,0.31,0.41,28.08,8.92,-26.05,
71395.6,0.17,0.41,1.10,-0.79,0.10,1.24,27.53,-21.39,-20.89,
71395.7,0.20,0.50,0.89,-0.93,0.05,1.36,26.59,8.02,-26.05,
71395.8,-0.22,-0.16,1.00,-1.19,-0.02,1.57,19.56,-30.61,-18.70,
71395.9,-0.32,-0.19,1.05,-1.42,-0.04,1.85,27.03,8.02,-26.16,
71396.1,-0.04,0.48,0.71,-0.12,0.27,-0.03,18.33,-33.21,-19.10,
71396.2,-0.11,0.49,0.76,-0.03,0.19,-0.09,18.20,-32.80,-18.75,
71396.3,-0.17,0.47,0.87,0.01,-0.39,-0.12,19.24,-34.02,-16.90,
71396.4,-0.19,0.48,0.84,-0.22,0.42,0.18,20.58,-31.33,-17.88,
71396.5,-0.19,0.47,0.81,-0.25,0.37,0.15,17.87,-33.80,-17.28,
71396.6,-0.17,0.47,0.85,-0.25,0.33,0.09,18.41,-32.17,-17.39,
71396.7,-0.15,0.46,0.90,-0.28,0.15,0.08,19.41,-31.16,-21.97,
