Relative Time (to start of segment),aclx 1,aclx 2,aclx 3,aclx 4,acly 1,acly 2,acly 3,acly 4,aclz 1,aclz 2,aclz 3,aclz 4,gyrx 1,gyrx 2,gyrx 3,gyrx 4,gyry 1,gyry 2,gyry 3,gyry 4,gyrz 1,gyrz 2,gyrz 3,gyrz 4,magr 1,magr 2,magr 3,magr 4,magphi 1,magphi 2,magphi 3,magphi 4,magtheta 1,magtheta 2,magtheta 3,magtheta 4,
0.000000,-0.107793,,,,-0.394203,,,,-0.505359,,,,-0.232150,,,,0.366107,,,,-0.172874,,,,0.000000,,,,0.058221,,,,0.460180,,,,
0.041667,-0.162613,,,,-0.353520,,,,-0.410753,,,,-0.233165,,,,0.329730,,,,-0.172874,,,,0.000000,,,,-0.036660,,,,0.387960,,,,
0.083333,-0.194311,,,,-0.317068,,,,-0.338492,,,,-0.174427,,,,0.205914,,,,-0.116378,,,,0.000000,,,,-0.100005,,,,0.334879,,,,
0.125000,-0.203206,,,,-0.275706,,,,-0.276858,,,,-0.113120,,,,0.123816,,,,-0.063307,,,,0.000000,,,,-0.156094,,,,0.280523,,,,
0.166667,-0.219964,,,,-0.244145,,,,-0.219533,,,,-0.053605,,,,0.051729,,,,-0.015371,,,,0.000000,,,,-0.209205,,,,0.235661,,,,
0.208333,-0.221192,,,,-0.197986,,,,-0.157093,,,,0.004835,,,,-0.010346,,,,0.029141,,,,0.000000,,,,-0.174591,,,,0.178883,,,,
0.291667,-0.225638,,,,-0.149061,,,,-0.095223,,,,0.066860,,,,-0.104459,,,,0.083925,,,,0.000000,,,,-0.140290,,,,0.123353,,,,
0.333333,-0.229990,,,,-0.115760,,,,-0.041121,,,,0.123506,,,,-0.152517,,,,0.126725,,,,0.000000,,,,-0.229397,,,,0.065666,,,,
0.375000,-0.247218,,,,-0.079698,,,,0.019137,,,,0.179436,,,,-0.190563,,,,0.172949,,,,0.000000,,,,-0.283884,,,,0.015323,,,,
0.416667,-0.213000,,,,-0.018374,,,,0.086297,,,,0.240744,,,,-0.280671,,,,0.226020,,,,0.000000,,,,-0.249893,,,,-0.045701,,,,
0.458333,-0.140478,,,,0.026395,,,,0.106158,,,,0.297928,,,,-0.279670,,,,0.277523,,,,0.000000,,,,-0.276348,,,,-0.074498,,,,
0.500000,-0.046524,,,,0.080082,,,,0.124981,,,,0.344357,,,,-0.336738,,,,0.311620,,,,0.000000,,,,-0.168657,,,,-0.105831,,,,
0.541667,0.008684,,,,0.108864,,,,0.133751,,,,0.281615,,,,-0.262649,,,,0.253412,,,,0.000000,,,,-0.081226,,,,-0.123638,,,,
0.583333,0.059858,,,,0.127196,,,,0.138833,,,,0.219232,,,,-0.194567,,,,0.195205,,,,0.000000,,,,0.009403,,,,-0.132111,,,,
0.625000,0.112351,,,,0.155427,,,,0.148618,,,,0.158283,,,,-0.138500,,,,0.142133,,,,0.000000,,,,0.096927,,,,-0.149377,,,,
0.708333,0.153305,,,,0.168753,,,,0.152599,,,,0.098768,,,,-0.090442,,,,0.090773,,,,0.000000,,,,0.096795,,,,-0.154936,,,,
0.750000,0.190846,,,,0.179631,,,,0.156825,,,,0.036026,,,,-0.012348,,,,0.030853,,,,0.000000,,,,0.096933,,,,-0.159358,,,,
0.791667,0.239778,,,,0.205959,,,,0.163894,,,,-0.020979,,,,0.021693,,,,-0.015371,,,,0.000000,,,,0.184750,,,,-0.170787,,,,
0.833333,0.288915,,,,0.227701,,,,0.165519,,,,-0.077984,,,,0.049726,,,,-0.065019,,,,0.000000,,,,0.273576,,,,-0.181283,,,,
0.875000,0.291720,,,,0.224970,,,,0.158066,,,,-0.146403,,,,0.138834,,,,-0.124225,,,,0.000000,,,,0.288729,,,,-0.183121,,,,
0.916667,0.307907,,,,0.225107,,,,0.164842,,,,-0.289513,,,,0.209919,,,,-0.308122,,,,0.000000,,,,0.362560,,,,-0.202569,,,,
0.958333,0.291755,,,,0.214004,,,,0.163087,,,,-0.333612,,,,0.259979,,,,-0.400569,,,,0.000000,,,,0.364508,,,,-0.201654,,,,
1.000000,0.266808,,,,0.201435,,,,0.161827,,,,-0.376635,,,,0.296023,,,,-0.486169,,,,0.000000,,,,0.273850,,,,-0.197562,,,,
0.000000,,0.438174,,,,-0.307049,,,,-0.427257,,,,-0.365147,,,,0.336341,,,,-0.371528,,,,0.000000,,,,-0.131841,,,,0.360252,,,
0.062500,,0.298261,,,,-0.274132,,,,-0.363003,,,,-0.262607,,,,0.243097,,,,-0.267783,,,,0.000000,,,,-0.222938,,,,0.314800,,,
0.187500,,0.221042,,,,-0.274180,,,,-0.333943,,,,-0.155271,,,,0.146462,,,,-0.158902,,,,0.000000,,,,-0.313775,,,,0.324881,,,
0.250000,,0.080274,,,,-0.248625,,,,-0.266354,,,,-0.070121,,,,0.066781,,,,-0.069538,,,,0.000000,,,,-0.252771,,,,0.265334,,,
0.312500,,-0.058282,,,,-0.219731,,,,-0.197004,,,,0.045611,,,,-0.050198,,,,0.046533,,,,0.000000,,,,-0.193279,,,,0.205955,,,
0.375000,,-0.134263,,,,-0.220446,,,,-0.167232,,,,0.165540,,,,-0.173959,,,,0.166713,,,,0.000000,,,,-0.281929,,,,0.214688,,,
0.437500,,-0.270176,,,,-0.169032,,,,-0.065352,,,,0.324896,,,,-0.353383,,,,0.322331,,,,0.000000,,,,-0.164313,,,,0.107301,,,
0.500000,,-0.380497,,,,-0.080243,,,,0.048365,,,,0.416192,,,,-0.419784,,,,0.417345,,,,0.000000,,,,-0.109894,,,,0.025514,,,
0.555556,,-0.321275,,,,-0.003437,,,,0.097811,,,,0.337038,,,,-0.328235,,,,0.337225,,,,0.000000,,,,-0.056790,,,,-0.047228,,,
0.611111,,-0.265687,,,,0.071427,,,,0.146773,,,,0.245892,,,,-0.231600,,,,0.245806,,,,0.000000,,,,-0.004338,,,,-0.118763,,,
0.666667,,-0.213455,,,,0.147474,,,,0.198190,,,,0.149349,,,,-0.133270,,,,0.149251,,,,0.000000,,,,0.046438,,,,-0.189873,,,
0.777778,,-0.082608,,,,0.191055,,,,0.211695,,,,0.046810,,,,-0.034940,,,,0.047560,,,,0.000000,,,,0.193262,,,,-0.210936,,,
0.833333,,-0.023489,,,,0.264760,,,,0.258783,,,,-0.061726,,,,0.068476,,,,-0.060293,,,,0.000000,,,,0.341789,,,,-0.284994,,,
0.888889,,0.115501,,,,0.315679,,,,0.264916,,,,-0.143278,,,,0.161720,,,,-0.142467,,,,0.000000,,,,0.336597,,,,-0.291982,,,
0.944444,,0.240956,,,,0.362170,,,,0.271398,,,,-0.262607,,,,0.280395,,,,-0.259566,,,,0.000000,,,,0.333872,,,,-0.296468,,,
1.000000,,0.355526,,,,0.444310,,,,0.322213,,,,-0.410570,,,,0.422097,,,,-0.402686,,,,0.000000,,,,0.479912,,,,-0.378480,,,
0.000000,,,0.225897,,,,-0.305417,,,,-0.409546,,,,-0.147379,,,,0.118560,,,,-0.130924,,,,0.000000,,,,0.141740,,,,0.351410,,
0.041667,,,0.151210,,,,-0.298598,,,,-0.377792,,,,-0.142234,,,,0.100354,,,,-0.126465,,,,0.000000,,,,0.040253,,,,0.318563,,
0.083333,,,0.068112,,,,-0.273940,,,,-0.330369,,,,-0.085078,,,,0.043714,,,,-0.074354,,,,0.000000,,,,-0.029471,,,,0.266503,,
0.125000,,,-0.008294,,,,-0.243160,,,,-0.273467,,,,-0.036517,,,,0.010674,,,,-0.028486,,,,0.000000,,,,-0.091202,,,,0.221268,,
0.166667,,,-0.071959,,,,-0.217971,,,,-0.223520,,,,0.010914,,,,-0.025737,,,,0.016872,,,,0.000000,,,,-0.148740,,,,0.187141,,
0.208333,,,-0.124983,,,,-0.175977,,,,-0.168282,,,,0.057969,,,,-0.064846,,,,0.061721,,,,0.000000,,,,-0.111553,,,,0.134114,,
0.291667,,,-0.196027,,,,-0.147767,,,,-0.119318,,,,0.103706,,,,-0.105977,,,,0.106060,,,,0.000000,,,,-0.169600,,,,0.096192,,
0.333333,,,-0.251364,,,,-0.104333,,,,-0.064805,,,,0.148879,,,,-0.147108,,,,0.150399,,,,0.000000,,,,-0.132492,,,,0.044144,,
0.375000,,,-0.312870,,,,-0.076622,,,,-0.023663,,,,0.192735,,,,-0.189588,,,,0.195247,,,,0.000000,,,,-0.191583,,,,0.003553,,
0.416667,,,-0.345436,,,,-0.032696,,,,0.029663,,,,0.235649,,,,-0.232742,,,,0.238567,,,,0.000000,,,,-0.250208,,,,-0.035083,,
0.458333,,,-0.324954,,,,0.042649,,,,0.099073,,,,0.295142,,,,-0.261849,,,,0.293056,,,,0.000000,,,,-0.149400,,,,-0.099657,,
0.500000,,,-0.293640,,,,0.121942,,,,0.165611,,,,0.333711,,,,-0.289382,,,,0.327755,,,,0.000000,,,,-0.028511,,,,-0.163783,,
0.526316,,,-0.218663,,,,0.152520,,,,0.166889,,,,0.283833,,,,-0.258365,,,,0.280867,,,,0.000000,,,,0.068092,,,,-0.178008,,
0.552632,,,-0.144140,,,,0.176584,,,,0.170257,,,,0.234708,,,,-0.224651,,,,0.231942,,,,0.000000,,,,0.167223,,,,-0.187304,,
0.578947,,,-0.076914,,,,0.206323,,,,0.181049,,,,0.187088,,,,-0.188240,,,,0.183526,,,,0.000000,,,,0.262345,,,,-0.206692,,
0.631579,,,-0.025390,,,,0.219137,,,,0.184117,,,,0.139092,,,,-0.149131,,,,0.137658,,,,0.000000,,,,0.262359,,,,-0.210817,,
0.657895,,,0.033604,,,,0.236121,,,,0.193165,,,,0.092602,,,,-0.107326,,,,0.091790,,,,0.000000,,,,0.260694,,,,-0.226404,,
0.684211,,,0.083266,,,,0.247520,,,,0.197931,,,,0.048370,,,,-0.066194,,,,0.046941,,,,0.000000,,,,0.260811,,,,-0.229825,,
0.710526,,,0.152729,,,,0.274849,,,,0.212627,,,,0.005644,,,,-0.023714,,,,0.002602,,,,0.000000,,,,0.355402,,,,-0.254603,,
0.736842,,,0.181695,,,,0.246773,,,,0.189772,,,,-0.042682,,,,0.026801,,,,-0.047980,,,,0.000000,,,,0.291311,,,,-0.207143,,
0.763158,,,0.186096,,,,0.196082,,,,0.162273,,,,-0.151896,,,,0.112491,,,,-0.156406,,,,0.000000,,,,0.176873,,,,-0.168042,,
0.789474,,,0.171273,,,,0.144533,,,,0.130204,,,,-0.169965,,,,0.142834,,,,-0.176792,,,,0.000000,,,,0.086314,,,,-0.125687,,
0.815789,,,0.168875,,,,0.094256,,,,0.098979,,,,-0.186717,,,,0.175874,,,,-0.195139,,,,0.000000,,,,-0.005478,,,,-0.062701,,
0.842105,,,0.154190,,,,0.044723,,,,0.072514,,,,-0.203845,,,,0.206217,,,,-0.209919,,,,0.000000,,,,-0.095738,,,,-0.016441,,
0.894737,,,0.152959,,,,-0.005987,,,,0.031755,,,,-0.221161,,,,0.236559,,,,-0.224189,,,,0.000000,,,,-0.132099,,,,0.045300,,
0.921053,,,0.165788,,,,-0.061853,,,,-0.023004,,,,-0.237913,,,,0.265554,,,,-0.240497,,,,0.000000,,,,-0.168859,,,,0.103455,,
0.947368,,,0.161453,,,,-0.101702,,,,-0.049373,,,,-0.240171,,,,0.277016,,,,-0.242536,,,,0.000000,,,,-0.162214,,,,0.147801,,
0.973684,,,0.157662,,,,-0.151036,,,,-0.080822,,,,-0.239230,,,,0.289154,,,,-0.240497,,,,0.000000,,,,-0.252480,,,,0.196668,,
1.000000,,,0.179825,,,,-0.206953,,,,-0.141918,,,,-0.265252,,,,0.329049,,,,-0.270821,,,,0.000000,,,,-0.253791,,,,0.256076,,
0.000000,,,,0.207901,,,,-0.219085,,,,-0.304024,,,,0.000043,,,,-0.064945,,,,-0.000389,,,,0.000000,,,,0.077965,,,,0.213000,
0.045455,,,,0.147877,,,,-0.219909,,,,-0.282784,,,,0.026544,,,,-0.094365,,,,0.029189,,,,0.000000,,,,0.100692,,,,0.221101,
0.090909,,,,0.048215,,,,-0.212784,,,,-0.245123,,,,0.054073,,,,-0.120175,,,,0.060417,,,,0.000000,,,,0.066957,,,,0.199220,
0.181818,,,,-0.013416,,,,-0.212730,,,,-0.223205,,,,0.084749,,,,-0.143170,,,,0.093004,,,,0.000000,,,,0.033748,,,,0.207405,
0.272727,,,,-0.041940,,,,-0.193959,,,,-0.208501,,,,0.115556,,,,-0.155371,,,,0.125047,,,,0.000000,,,,0.001389,,,,0.213404,
0.318182,,,,-0.046395,,,,-0.152665,,,,-0.171442,,,,0.148722,,,,-0.174611,,,,0.157633,,,,0.000000,,,,0.023304,,,,0.177631,
0.363636,,,,-0.115823,,,,-0.151666,,,,-0.150279,,,,0.182544,,,,-0.192913,,,,0.190219,,,,0.000000,,,,-0.009210,,,,0.179809,
0.409091,,,,-0.181769,,,,-0.130408,,,,-0.107754,,,,0.217152,,,,-0.210276,,,,0.222262,,,,0.000000,,,,0.012318,,,,0.143027,
0.454545,,,,-0.344596,,,,-0.087100,,,,-0.023043,,,,0.287156,,,,-0.245003,,,,0.285805,,,,0.000000,,,,0.055088,,,,0.074612,
0.500000,,,,-0.402892,,,,-0.028687,,,,0.051271,,,,0.315996,,,,-0.258142,,,,0.312985,,,,0.000000,,,,0.077180,,,,0.024513,
0.517241,,,,-0.351698,,,,0.019152,,,,0.076954,,,,0.276239,,,,-0.235617,,,,0.277732,,,,0.000000,,,,0.097306,,,,-0.022068,
0.534483,,,,-0.280888,,,,0.064027,,,,0.103676,,,,0.247208,,,,-0.199270,,,,0.242480,,,,0.000000,,,,0.096713,,,,-0.071710,
0.551724,,,,-0.143825,,,,0.100744,,,,0.108126,,,,0.215746,,,,-0.168042,,,,0.207524,,,,0.000000,,,,0.157469,,,,-0.087436,
0.586207,,,,-0.064063,,,,0.145841,,,,0.128409,,,,0.180709,,,,-0.140909,,,,0.171383,,,,0.000000,,,,0.217509,,,,-0.135866,
0.603448,,,,-0.017466,,,,0.171507,,,,0.157048,,,,0.144384,,,,-0.115312,,,,0.135242,,,,0.000000,,,,0.276702,,,,-0.182381,
0.620690,,,,-0.018026,,,,0.173150,,,,0.161319,,,,0.107201,,,,-0.091763,,,,0.099397,,,,0.000000,,,,0.276383,,,,-0.182209,
0.637931,,,,0.063059,,,,0.218679,,,,0.183367,,,,0.069447,,,,-0.070774,,,,0.064145,,,,0.000000,,,,0.335098,,,,-0.226112,
0.655172,,,,0.124182,,,,0.236512,,,,0.182990,,,,0.024840,,,,-0.050723,,,,0.023758,,,,0.000000,,,,0.219928,,,,-0.223947,
0.672414,,,,0.236548,,,,0.261373,,,,0.183613,,,,-0.062265,,,,0.009089,,,,-0.057312,,,,0.000000,,,,0.148102,,,,-0.222127,
0.689655,,,,0.199261,,,,0.246201,,,,0.183655,,,,-0.078140,,,,0.027518,,,,-0.073013,,,,0.000000,,,,0.086080,,,,-0.218746,
0.706897,,,,0.167249,,,,0.222993,,,,0.178887,,,,-0.094157,,,,0.046972,,,,-0.088713,,,,0.000000,,,,0.026741,,,,-0.205741,
0.724138,,,,0.112931,,,,0.208773,,,,0.176882,,,,-0.110746,,,,0.064890,,,,-0.103229,,,,0.000000,,,,-0.035429,,,,-0.200810,
0.758621,,,,0.041078,,,,0.193298,,,,0.178603,,,,-0.127192,,,,0.084343,,,,-0.118930,,,,0.000000,,,,-0.097207,,,,-0.195742,
0.775862,,,,0.008673,,,,0.165747,,,,0.168095,,,,-0.143638,,,,0.103285,,,,-0.134927,,,,0.000000,,,,-0.155217,,,,-0.164384,
0.793103,,,,-0.040143,,,,0.147222,,,,0.168042,,,,-0.160227,,,,0.120691,,,,-0.151220,,,,0.000000,,,,-0.216682,,,,-0.157824,
0.810345,,,,-0.086417,,,,0.113375,,,,0.159341,,,,-0.173956,,,,0.143728,,,,-0.166328,,,,0.000000,,,,-0.277628,,,,-0.154360,
0.827586,,,,-0.075041,,,,0.044667,,,,0.100259,,,,-0.191725,,,,0.168898,,,,-0.187780,,,,0.000000,,,,-0.334952,,,,-0.074476,
0.844828,,,,-0.078441,,,,-0.013753,,,,0.053782,,,,-0.212998,,,,0.212327,,,,-0.212245,,,,0.000000,,,,-0.293126,,,,-0.018779,
0.862069,,,,-0.037496,,,,-0.044982,,,,0.016157,,,,-0.204274,,,,0.214375,,,,-0.204839,,,,0.000000,,,,-0.252954,,,,0.025254,
0.879310,,,,0.010609,,,,-0.075927,,,,-0.026259,,,,-0.194979,,,,0.215911,,,,-0.196840,,,,0.000000,,,,-0.214542,,,,0.059624,
0.896552,,,,0.049106,,,,-0.100069,,,,-0.060203,,,,-0.185111,,,,0.216935,,,,-0.188249,,,,0.000000,,,,-0.178015,,,,0.089525,
0.931034,,,,0.094615,,,,-0.130502,,,,-0.103738,,,,-0.174528,,,,0.217959,,,,-0.180251,,,,0.000000,,,,-0.139316,,,,0.129535,
0.948276,,,,0.151097,,,,-0.159348,,,,-0.151618,,,,-0.163659,,,,0.218471,,,,-0.172252,,,,0.000000,,,,-0.101384,,,,0.161304,
0.965517,,,,0.175869,,,,-0.177414,,,,-0.182145,,,,-0.152219,,,,0.220006,,,,-0.163958,,,,0.000000,,,,-0.066488,,,,0.175268,
0.982759,,,,0.220421,,,,-0.204913,,,,-0.224361,,,,-0.140349,,,,0.223590,,,,-0.154774,,,,0.000000,,,,-0.028843,,,,0.209383,
1.000000,,,,0.281646,,,,-0.217361,,,,-0.255996,,,,-0.128145,,,,0.222395,,,,-0.142974,,,,0.000000,,,,0.014319,,,,0.241105,
