Clock Time (s),Elapsed Time (s),ax,ay,az,gx,gy,gz,mr,mtheta,mphi,
71338.5,0.0,-0.33,0.06,0.91,-0.00,0.02,-0.01,38.392468011317014,0.09816331950947993,2.227534049964429,
71338.6,0.10000000000582077,-0.26,0.08,0.95,-0.00,0.01,-0.01,39.74347367807701,0.10451725003997095,2.205017244824142,
71338.7,0.19999999999708962,-0.26,0.08,0.95,0.00,0.00,-0.00,40.53000616826995,0.08481627219789932,2.2224024774547275,
71338.8,0.3000000000029104,-0.25,0.07,0.96,0.01,0.01,-0.00,40.26690949154156,0.1068662834716765,2.1970199906093058,
71338.9,0.39999999999417923,-0.26,0.09,0.92,0.00,-0.01,-0.01,41.37351930885261,0.07599393815106525,2.2367209358375177,
71339.1,0.6000000000058208,-0.24,0.06,0.94,-0.14,-0.09,-0.04,39.2477324185742,0.11114119418253285,2.2847340124599747,
71339.2,0.6999999999970896,-0.23,0.06,0.90,-0.13,-0.08,-0.04,39.017130852998406,0.09814824381309861,2.2602695692357595,
71339.3,0.8000000000029104,-0.26,0.01,0.89,-0.11,-0.07,-0.05,37.89254939958514,0.15486945743318295,2.2655957869377112,
71339.4,0.8999999999941792,-0.23,-0.08,0.85,-0.09,-0.07,-0.07,38.930977383055776,0.11136168140366069,2.270459721044069,
71339.5,1.0,-0.24,0.05,0.95,-0.08,-0.07,-0.10,39.08178220091811,0.12427005442974835,2.2976261919100627,
71339.6,1.1000000000058208,-0.25,0.06,0.94,-0.07,-0.07,-0.11,37.887571840908464,0.5332136868643288,2.15258661629845,
71339.7,1.1999999999970896,-0.24,0.07,0.93,-0.07,-0.07,-0.09,40.576378596419865,0.7013547747784447,2.0608998377674195,
71339.8,1.3000000000029104,-0.24,0.07,0.93,-0.13,-0.09,-0.04,39.10020971810765,0.12435499454676144,2.2989190691751813,
71339.9,1.3999999999941792,-0.24,0.07,0.94,-0.06,-0.04,-0.05,39.233975072633164,0.0694589526340806,2.2374271420535257,
71340.1,1.6000000000058208,-0.24,-0.90,0.60,-1.10,-0.35,-0.37,42.81853103505537,0.9964914966201948,1.6371714767506735,
71340.2,1.6999999999970896,-0.21,-0.92,0.63,-1.09,-0.36,-0.28,41.483859511863166,1.0326519001585366,1.536800656092111,
71340.3,1.8000000000029104,-0.16,-0.95,0.46,-1.07,-0.30,-0.16,42.37315541707981,1.0408211631794175,1.4446750465422669,
71340.4,1.8999999999941792,-0.19,-0.92,0.64,-1.11,-0.34,-0.45,42.8985291123134,1.0012549581288366,1.631675171900296,
71340.5,2.0,-0.13,-0.92,0.66,-1.04,-0.09,0.13,41.96953418850393,0.9835208035607426,1.5917654538125536,
71340.6,2.1000000000058208,-0.10,-0.89,0.68,-1.02,0.01,0.23,43.906775103621534,1.117899880094939,1.3991380760007133,
71340.7,2.1999999999970896,-0.15,-0.93,0.67,-1.00,0.14,0.24,42.32099360837361,0.9953127335841112,1.5863920559928344,
71340.8,2.3000000000029104,-0.10,-0.87,0.67,-1.11,-0.35,-0.41,43.36535944737458,1.0274503142747333,1.5721799200570745,
71340.9,2.3999999999941792,-0.23,-0.90,0.61,-0.82,0.29,0.04,43.43015311969324,1.1185106806354381,1.4149748088996563,
71341.1,2.6000000000058208,-0.11,-0.90,0.35,-0.00,0.12,-0.04,43.16533215440372,1.1472277569855507,1.4315782806471224,
71341.2,2.6999999999970896,-0.11,-0.90,0.35,-0.00,0.16,-0.02,43.49598027404372,1.140286328381894,1.428928546529512,
71341.3,2.8000000000029104,-0.11,-0.90,0.34,-0.01,0.18,-0.01,42.49053894692323,1.1247656884268533,1.4021966354114652,
71341.4,2.8999999999941792,-0.05,-0.93,0.27,-0.00,0.13,-0.03,44.560035906628265,1.1189224327720688,1.4212268322961874,
71341.5,3.0,-0.05,-0.92,0.36,-0.03,0.21,-0.01,43.404730156977124,1.1030764838565734,1.4078823292137606,
71341.6,3.1000000000058208,-0.11,-0.90,0.35,-0.04,0.22,-0.02,43.70111554640225,1.1173936247958314,1.4217361518582228,
71341.7,3.1999999999970896,-0.12,-0.90,0.35,-0.06,0.21,-0.03,42.72878303907098,1.115826666953129,1.4223419719536599,
71341.8,3.3000000000029104,-0.14,-0.91,0.35,-0.06,0.20,-0.03,42.34782639050085,1.1195651210066868,1.407130285589604,
71341.9,3.3999999999941792,-0.13,-0.92,0.36,-0.07,0.20,-0.02,42.6412781234334,1.1759505463561764,1.4298559657733187,
71342.1,3.6000000000058208,-0.09,-0.93,0.37,-0.12,-0.12,0.01,42.1846002707149,1.1573539648153064,1.4064912582830884,
71342.2,3.6999999999970896,-0.09,-0.93,0.38,-0.12,-0.14,0.00,43.91136754873389,1.1566416475465697,1.4640151940043304,
71342.3,3.8000000000029104,-0.04,-0.92,0.34,-0.09,-0.25,-0.03,42.84597880781813,1.1811150896991023,1.4111779933745727,
71342.4,3.8999999999941792,-0.09,-0.93,0.38,-0.08,-0.27,-0.02,42.88030433660657,1.1674830467353665,1.4247564099697956,
71342.5,4.0,-0.08,-0.93,0.38,-0.12,-0.16,-0.01,42.72440286300091,1.1510358632440485,1.4301320046272459,
71342.6,4.100000000005821,-0.07,-0.92,0.37,-0.06,-0.31,0.01,42.90092190151629,1.161391712589684,1.4307146022095423,
71342.7,4.19999999999709,-0.07,-0.93,0.37,-0.05,-0.32,0.01,43.14814712128436,1.161391712589684,1.3946769537807984,
71342.8,4.30000000000291,-0.07,-0.92,0.38,-0.05,-0.33,0.02,44.821753647085245,1.1577640108444873,1.4035811270437641,
71342.9,4.399999999994179,-0.09,-0.93,0.38,-0.04,-0.33,0.02,43.38637804657125,1.16758029531671,1.4550641161137328,
71343.1,4.600000000005821,-0.02,-0.89,0.34,-0.01,-0.03,-0.05,42.5980586412104,1.1510358632440485,1.4529124921750596,
71343.2,4.69999999999709,-0.03,-0.90,0.35,-0.01,-0.04,-0.04,43.36282970471369,1.15160321133695,1.4361737288860372,
71343.3,4.80000000000291,-0.03,-0.88,0.35,-0.01,-0.01,-0.05,42.93404942466992,1.1478355162364926,1.4575907294594752,
71343.4,4.899999999994179,-0.11,-0.93,0.32,-0.01,0.00,-0.04,43.31201911709958,1.1696716354890868,1.4283218832850864,
71343.5,5.0,-0.03,-0.91,0.34,-0.01,-0.04,-0.04,43.53381214642246,1.136020808900648,1.4241782468150992,
71343.6,5.100000000005821,-0.04,-0.92,0.34,-0.01,0.03,-0.03,43.570652967335704,1.1488171158928755,1.4523205313831433,
71343.7,5.19999999999709,-0.04,-0.91,0.34,-0.01,-0.04,-0.05,43.17598174911602,1.1626068425401495,1.4812752468676185,
71343.8,5.30000000000291,-0.04,-0.92,0.34,-0.01,-0.03,-0.05,41.63649000576297,1.0502461386667234,1.645800902772464,
71343.9,5.399999999994179,-0.03,-0.90,0.34,-0.01,0.04,-0.01,42.99250399779012,1.1526669932967935,1.4652331720210903,
71344.1,5.600000000005821,-0.02,-0.58,0.71,2.44,-1.37,0.49,38.07693002330939,0.7747388148941481,2.4410692722630154,
71344.2,5.69999999999709,0.03,-0.52,0.72,2.55,-1.40,0.58,39.76523733111623,0.5763332249587542,2.6155994729137,
71344.3,5.80000000000291,0.06,-0.05,0.85,2.36,-1.31,0.39,39.47918058926755,0.8525780227172385,2.2483804970787697,
71344.4,5.899999999994179,-0.00,-0.56,0.72,2.31,-1.27,0.33,39.33225266877045,0.8414821105849964,2.2681886455699987,
71344.5,6.0,0.04,-0.50,0.73,2.26,-1.21,0.27,39.129717606954436,0.8870870151605253,2.1821644434602425,
71344.6,6.100000000005821,0.07,-0.42,0.72,2.51,-1.40,0.56,38.977098404062865,0.7992476933515908,2.337110124539868,
71344.7,6.19999999999709,0.08,-0.40,0.73,2.14,-1.02,0.20,38.99129390004902,0.8037281525774042,2.3627077726194803,
71344.8,6.30000000000291,0.08,-0.37,0.73,2.07,-0.88,0.17,38.41927771314812,5.778744015310915,2.699160367302737,
71344.9,6.399999999994179,0.00,-0.55,0.71,2.47,-1.39,0.53,39.0292480071036,0.8087361004655792,2.3894425750319783,
71345.1,6.600000000005821,0.23,0.27,0.89,-0.10,-0.03,-0.01,38.23157464714212,5.806431507935939,2.7380068396453474,
71345.2,6.69999999999709,0.22,0.25,0.90,-0.09,-0.03,-0.01,37.61954943908818,5.785513275162655,2.7242082749426784,
71345.3,6.80000000000291,0.23,0.28,0.89,-0.09,-0.04,-0.01,37.4513163987596,5.793902289657103,2.7344569064889903,
71345.4,6.899999999994179,0.20,0.21,0.92,-0.09,-0.04,-0.01,37.17858792369608,5.754357890462281,2.8007639144711587,
71345.5,7.0,0.28,0.30,0.87,-0.04,-0.07,-0.01,37.261469375213856,5.804259809961082,2.7464386761239483,
71345.6,7.100000000005821,0.23,0.28,0.88,-0.03,-0.08,-0.00,37.750382779516286,5.898477793285863,2.73214710581802,
71345.7,7.19999999999709,0.20,0.22,0.91,-0.09,-0.05,-0.01,38.864922488022536,5.771648332511074,2.718002057338109,
71345.8,7.30000000000291,0.22,0.29,0.90,-0.03,-0.11,-0.01,37.953998471834296,5.932965352313653,2.725788075759578,
71345.9,7.399999999994179,0.24,0.31,0.90,-0.03,-0.11,-0.01,38.14349092571366,5.812130426247615,2.734748625840245,
71346.1,7.600000000005821,0.17,0.29,0.83,-0.78,0.09,-0.01,39.264067542729194,6.079329541104953,2.7613763561358677,
71346.2,7.69999999999709,0.19,0.26,0.88,-0.81,0.07,-0.02,38.57272741199409,5.908094993357149,2.768564104308766,
71346.3,7.80000000000291,0.20,0.25,0.88,-0.85,0.05,-0.05,38.33537922076681,5.898157174094264,2.7802650999008316,
71346.4,7.899999999994179,0.03,-0.17,0.93,-0.76,0.10,-0.01,38.95308331826892,0.6529436007974401,2.6239621756323794,
71346.5,8.0,0.20,0.24,0.88,-0.88,0.04,-0.10,38.35142500611939,6.0299736668921184,2.74739071570982,
71346.6,8.10000000000582,0.20,0.24,0.88,-0.92,0.04,-0.14,40.368534776481546,0.8163628287856031,2.371912903630565,
71346.7,8.19999999999709,0.18,0.22,0.90,-0.94,0.03,-0.15,40.40351593611626,0.9139400282414514,2.134838900626516,
71346.8,8.30000000000291,0.17,0.20,0.92,-0.95,0.00,-0.16,38.356398423209654,6.039514260175699,2.7443746839667598,
71346.9,8.39999999999418,0.16,0.19,0.93,-0.96,-0.03,-0.16,39.026566592514904,5.925427570955597,2.746500314130598,
71347.1,8.60000000000582,-0.10,-0.85,0.69,-0.96,0.25,-0.20,42.148682067177376,1.1164294413019444,1.6741865010560342,
71347.2,8.69999999999709,-0.10,-0.86,0.69,-0.93,0.26,-0.19,42.158413157992555,1.1122653984371493,1.6693942434210343,
71347.3,8.80000000000291,-0.09,-0.84,0.65,-0.82,0.33,-0.19,42.56768022807914,1.161391712589684,1.5068545205234867,
71347.4,8.89999999999418,-0.09,-0.85,0.64,-0.78,0.36,-0.18,42.83560551690614,1.1771047614224526,1.4840774861947599,
71347.5,9.0,-0.09,-0.85,0.63,-0.75,0.39,-0.16,42.16164726383447,1.1353327422251245,1.6420112217685916,
71347.6,9.10000000000582,-0.07,-0.90,0.39,-0.72,0.39,-0.14,43.15168942231578,1.143706352489293,1.4735437688968156,
71347.7,9.19999999999709,-0.09,-0.85,0.62,-0.91,0.27,-0.18,42.213605626622325,1.1426355146416347,1.6440610019681248,
71347.8,9.30000000000291,-0.09,-0.85,0.62,-0.66,0.37,-0.07,42.38816462174317,1.1634808301354962,1.6494370234882547,
71347.9,9.39999999999418,-0.07,-0.86,0.60,-0.64,0.37,-0.05,42.971233400962554,1.1328783326273122,1.437287751939761,
71348.1,9.60000000000582,-0.09,-0.90,0.39,0.01,0.09,0.01,41.83289973214862,1.162379660540618,1.4978224552304225,
71348.2,9.69999999999709,-0.09,-0.90,0.39,0.01,0.08,0.01,42.04542900244925,1.1594514003398733,1.4924675588435057,
71348.3,9.80000000000291,-0.09,-0.90,0.38,0.01,0.08,0.01,43.23528767106795,1.14515124623506,1.4586155897988848,
71348.4,9.89999999999418,-0.08,-0.90,0.39,0.01,0.08,0.00,42.96845703536491,1.1472277569855507,1.4693855416976593,
71348.5,10.0,-0.08,-0.90,0.39,0.01,0.07,0.01,43.050734023939704,1.1319844410113566,1.4768152739549336,
71348.6,10.10000000000582,-0.08,-0.90,0.39,0.01,0.08,0.01,42.374067541363075,1.122865350530616,1.4601256411255386,
71348.7,10.19999999999709,-0.08,-0.90,0.39,0.01,0.10,0.01,43.16891242549435,1.1155711036423999,1.4849812118387782,
71348.8,10.30000000000291,-0.09,-0.91,0.38,0.01,0.11,0.01,43.1058801093308,1.1254329913444439,1.452672465372958,
71348.9,10.39999999999418,-0.09,-0.90,0.38,0.01,0.08,0.00,41.87011941707356,1.1646075243758967,1.4390570022636895,
71349.1,10.60000000000582,-0.09,-0.91,0.38,-0.04,-0.02,0.00,42.080629748139465,1.0975078809852323,1.4452308598867287,
71349.2,10.69999999999709,-0.10,-0.91,0.39,-0.03,-0.02,0.01,42.3290751139214,1.1477360942020616,1.4445430054528992,
71349.3,10.80000000000291,-0.09,-0.90,0.39,-0.03,-0.03,0.02,42.195011553500024,1.1068283418973202,1.4479613296067706,
71349.4,10.89999999999418,-0.09,-0.91,0.38,-0.03,-0.02,0.02,42.72176728554192,1.130878439939241,1.4494833958137407,
71349.5,11.0,-0.09,-0.91,0.39,-0.03,-0.02,0.02,42.593372723934415,1.0838360635525164,1.581831131237121,
71349.6,11.10000000000582,-0.09,-0.91,0.38,-0.04,-0.03,0.00,42.97530104606598,1.1419573920741906,1.4502025844065007,
71349.7,11.19999999999709,-0.09,-0.91,0.38,-0.02,-0.02,0.02,41.866522425441545,1.1574620533495794,1.443381350358782,
71349.8,11.30000000000291,-0.16,-0.60,0.88,-0.02,-0.02,0.01,40.331507534432674,0.8559130259709072,2.025681016068355,
71349.9,11.39999999999418,-0.13,-0.44,0.85,-0.02,-0.04,0.01,39.51750624723174,0.6777664106993575,2.3017127428811093,
71350.1,11.60000000000582,-0.04,-0.20,0.87,1.68,-0.45,0.32,39.835646097433894,0.6031197919788803,2.410294760009689,
71350.2,11.69999999999709,-0.04,-0.14,0.85,1.67,-0.43,0.31,37.794830334319535,0.0560987125179975,2.5735812698565974,
71350.3,11.80000000000291,-0.04,-0.19,0.87,1.63,-0.38,0.29,39.75786840362546,0.6065927591801985,2.389735138186611,
71350.4,11.89999999999418,-0.04,-0.18,0.87,1.60,-0.34,0.28,40.440718341790124,5.868922309536626,2.595070042845752,
71350.5,12.0,-0.03,-0.11,0.86,1.70,-0.49,0.34,39.498903782257045,5.852781602781109,2.573276056586935,
71350.6,12.10000000000582,-0.04,-0.17,0.87,1.55,-0.26,0.27,39.52127654820881,0.5516012551948175,2.476594462530082,
71350.7,12.19999999999709,-0.04,-0.16,0.87,1.52,-0.22,0.27,38.359470799269374,0.4058496943709759,2.4886968383960584,
71350.8,12.30000000000291,0.17,0.34,0.93,1.69,-0.47,0.33,38.706978698937476,5.756916707747313,2.6597555982693617,
71350.9,12.39999999999418,0.16,0.31,0.92,1.45,-0.15,0.28,38.44038761511127,0.3820448374370518,2.502339144187754,
71351.1,12.60000000000582,0.18,0.34,0.92,-0.07,-0.08,-0.03,38.69277581151293,5.86742036408535,2.664944952591194,
71351.2,12.69999999999709,0.16,0.33,0.91,-0.07,-0.08,-0.02,38.29681187775296,5.768874522506367,2.7059591171644746,
71351.3,12.80000000000291,0.16,0.32,0.91,-0.07,-0.09,-0.03,39.5715225888517,5.776142553470137,2.6856989100335102,
71351.4,12.89999999999418,0.16,0.32,0.93,-0.07,-0.10,-0.02,38.19859945076521,5.8242857500742735,2.6817135278989106,
71351.5,13.0,0.16,0.32,0.92,-0.06,-0.10,-0.02,39.27145273605243,5.79185871350521,2.6764977535478542,
71351.6,13.10000000000582,0.17,0.32,0.92,-0.05,-0.10,-0.01,38.236608113168195,5.84421499466279,2.642368886968149,
71351.7,13.19999999999709,0.17,0.31,0.93,-0.04,-0.09,0.00,38.82909991230804,5.785459986591772,2.6676955379793172,
71351.8,13.30000000000291,0.16,0.24,0.82,-0.07,-0.08,-0.02,39.00679940728283,5.832778709489291,2.6550366428025134,
71351.9,13.39999999999418,0.17,0.25,0.82,-0.01,-0.06,0.01,39.90053759036337,5.81953769817878,2.66916056495662,
71352.1,13.60000000000582,0.03,-0.06,0.94,-1.29,0.15,-0.55,39.16116188266125,0.3875448697198644,2.665714769823201,
71352.2,13.69999999999709,0.11,0.10,0.88,-1.30,0.17,-0.57,37.96722402283317,0.0068924813177503215,2.6652137047452276,
71352.3,13.80000000000291,0.08,0.08,0.90,-1.27,0.10,-0.52,38.07667133560916,0.06170645792952944,2.6636547392665615,
71352.4,13.89999999999418,0.06,0.07,0.91,-1.36,0.23,-0.60,40.483429943620145,0.9408940908193091,2.178338087498384,
71352.5,14.0,0.05,0.04,0.91,-1.39,0.25,-0.60,38.25246397292597,0.13072433516542462,2.6599116593696506,
71352.6,14.10000000000582,0.05,0.02,0.93,-1.41,0.27,-0.59,38.93214995347675,0.20993689556783163,2.6749687990362268,
71352.7,14.19999999999709,0.04,-0.00,0.94,-1.42,0.32,-0.58,37.60376310956126,6.274434072011873,2.668296124723694,
71352.8,14.30000000000291,0.04,-0.03,0.94,-1.28,0.12,-0.54,39.298277315933326,0.2501203632299917,2.68140241944179,
71352.9,14.39999999999418,0.04,-0.04,0.95,-1.42,0.42,-0.57,39.188540416810625,0.37007705146788616,2.669946684539309,
71353.1,14.60000000000582,-0.05,-0.92,0.48,-0.48,0.09,-0.29,43.20656663054818,1.249193526534295,1.4342822825388744,
71353.2,14.69999999999709,-0.06,-0.91,0.39,-0.46,0.09,-0.28,43.002237151106456,1.1966178818621787,1.485114585450625,
71353.3,14.80000000000291,-0.04,-0.91,0.37,-0.40,0.09,-0.27,42.899656175778375,1.1893334282351191,1.4767174619863594,
71353.4,14.89999999999418,-0.04,-0.92,0.49,-0.50,0.09,-0.30,43.168388897432806,1.2736084852505183,1.4109725520763874,
71353.5,15.0,-0.04,-0.92,0.47,-0.34,0.13,-0.25,43.57074018191566,1.2310040454936946,1.4583280916244306,
71353.6,15.10000000000582,-0.05,-0.93,0.50,-0.28,0.18,-0.23,42.73082961984239,1.2511488187194566,1.3991173921286113,
71353.7,15.19999999999709,-0.04,-0.92,0.46,-0.26,0.20,-0.22,42.90677102742643,1.193671727822323,1.3998283254125081,
71353.8,15.30000000000291,-0.05,-0.92,0.49,-0.23,0.22,-0.20,43.66771919851092,1.236797915927224,1.455352005784607,
71353.9,15.39999999999418,-0.03,-0.92,0.35,-0.20,0.26,-0.17,43.19897568230062,1.2095539772813775,1.5001340107956203,
71354.1,15.60000000000582,-0.03,-0.93,0.35,-0.02,0.06,-0.01,42.03689926719144,1.243348910366935,1.4319003655815428,
71354.2,15.69999999999709,-0.03,-0.93,0.35,-0.02,0.05,-0.01,41.85162481911544,1.24607163337527,1.4351409743338919,
71354.3,15.80000000000291,-0.03,-0.93,0.35,-0.02,0.04,-0.00,42.684897797698895,1.3166356625366966,1.391316814260044,
71354.4,15.89999999999418,-0.03,-0.91,0.36,-0.02,0.03,-0.00,43.27118556268132,1.2592797669230795,1.4001097458377338,
71354.5,16.0,-0.03,-0.91,0.36,-0.01,0.02,-0.00,43.481696149069435,1.2561472952701664,1.3869264737305873,
71354.6,16.10000000000582,-0.03,-0.91,0.36,-0.01,0.02,-0.00,43.6278913081987,1.234319296562349,1.3940729153373779,
71354.7,16.19999999999709,-0.03,-0.93,0.36,-0.01,0.03,-0.01,43.45631714722268,1.2561472952701664,1.3900937996913703,
71354.8,16.30000000000291,-0.04,-0.93,0.35,-0.01,0.03,-0.00,43.36756161003291,1.2561472952701664,1.401662520355686,
71354.9,16.39999999999418,-0.03,-0.93,0.36,-0.02,0.06,-0.01,43.11507972855901,1.2236645021526757,1.4386717983950517,
71355.1,16.60000000000582,-0.11,-0.87,0.61,0.76,-0.16,0.51,43.11245411711099,1.2044574682343554,1.4962709164001948,
71355.2,16.69999999999709,-0.11,-0.88,0.51,0.77,-0.18,0.52,42.870533003451214,1.0847370524230087,1.6583809320151603,
71355.3,16.80000000000291,-0.11,-0.88,0.50,1.77,-0.35,0.74,42.918958514856804,1.197836976203725,1.5006065309501782,
71355.4,16.89999999999418,-0.11,-0.88,0.51,0.75,-0.14,0.51,42.18261371702801,1.1708920303267776,1.5179062892457142,
71355.5,17.0,-0.11,-0.88,0.54,0.82,-0.32,0.53,42.36159227413437,1.1687897743365765,1.5287647571708853,
71355.6,17.10000000000582,-0.11,-0.88,0.54,0.83,-0.34,0.53,39.23746806306442,0.4669864947568813,2.3901125250563675,
71355.7,17.19999999999709,-0.10,-0.87,0.56,0.84,-0.39,0.53,42.57871533994421,1.16655242861217,1.541434717053711,
71355.8,17.30000000000291,-0.11,-0.87,0.59,0.85,-0.42,0.52,42.59548098096792,1.1576733856541621,1.5607011877363588,
71355.9,17.39999999999418,-0.11,-0.87,0.60,0.76,-0.15,0.51,38.81465316088757,5.960067595803961,2.5755150584510846,
71356.1,17.60000000000582,0.10,0.34,0.82,0.10,-0.27,0.13,37.146457435400215,5.863331518393979,2.614249218750191,
71356.2,17.69999999999709,0.11,0.33,0.84,0.11,-0.27,0.14,38.926727321982774,5.756724609325725,2.5864053449166997,
71356.3,17.80000000000291,0.10,0.32,0.85,0.06,-0.25,0.10,39.283346344220725,5.791740901038087,2.6371305475185935,
71356.4,17.89999999999418,0.11,0.33,0.86,0.05,-0.24,0.09,37.80300781683913,5.797396794712165,2.6091539395209757,
71356.5,18.0,0.11,0.33,0.88,0.05,-0.22,0.09,37.597639553567724,5.784287821767529,2.59501616986295,
71356.6,18.10000000000582,0.11,0.33,0.88,0.05,-0.20,0.08,37.16180027931909,5.799818676696995,2.5961739325166073,
71356.7,18.19999999999709,0.11,0.33,0.88,0.05,-0.18,0.07,37.54200314314621,5.838548535711996,2.5872519196191637,
71356.8,18.30000000000291,0.12,0.33,0.88,0.05,-0.15,0.06,38.49361765280057,5.8269350077676,2.596745862804006,
71356.9,18.39999999999418,0.12,0.32,0.90,0.05,-0.12,0.06,39.69657289993684,5.811751426166892,2.610572819747005,
71357.1,18.60000000000582,0.13,0.35,0.90,0.09,0.08,-0.02,39.36144560353443,5.804304926533115,2.5922444328842498,
71357.2,18.69999999999709,0.13,0.32,0.87,0.10,0.08,-0.04,38.25252540682772,5.810555903786757,2.5631778739330544,
71357.3,18.80000000000291,0.13,0.31,0.87,0.11,0.08,-0.05,39.03879480721709,5.7860912789975405,2.5979213462521256,
71357.4,18.89999999999418,0.13,0.30,0.85,0.09,0.09,-0.02,38.8612416168089,6.084055895577786,2.657168825497771,
71357.5,19.0,0.13,0.31,0.85,0.11,0.08,-0.07,37.81357560453653,0.23670584255429608,2.622373109091511,
71357.6,19.10000000000582,0.13,0.31,0.85,0.11,0.09,-0.08,38.632486329512886,5.7765751793844835,2.60081686741323,
71357.7,19.19999999999709,0.13,0.31,0.85,0.10,0.11,-0.09,39.38107921324656,5.75456466938905,2.6157122597423044,
71357.8,19.30000000000291,0.13,0.32,0.86,0.09,0.13,-0.10,39.88690386580538,0.8992925862718546,2.2369891265888406,
71357.9,19.39999999999418,0.13,0.31,0.84,0.08,0.14,-0.11,38.95553105786134,5.762463398460497,2.612044370068288,
71358.1,19.60000000000582,-0.21,-0.80,0.82,-1.42,0.53,-0.60,41.16627381728883,1.1126918982691225,1.7715777344293318,
71358.2,19.69999999999709,-0.21,-0.79,0.81,-1.37,0.55,-0.55,40.24863475945489,1.0791798225748863,1.93694768231914,
71358.3,19.80000000000291,-0.21,-0.78,0.83,-1.31,0.58,-0.51,41.46537350609542,1.102827616646856,1.8932459792670457,
71358.4,19.89999999999418,-0.00,-0.93,0.59,-1.25,0.60,-0.48,42.93526056751024,1.2246171789619085,1.508569526231125,
71358.5,20.0,-0.05,-0.90,0.46,-1.44,0.53,-0.62,41.73535072333764,1.1014010069427773,1.885788789686442,
71358.6,20.10000000000582,-0.21,-0.79,0.81,-1.17,0.63,-0.41,42.56924006838741,1.097600111067814,1.8644076184945741,
71358.7,20.19999999999709,-0.21,-0.77,0.76,-1.11,0.67,-0.33,43.425611106811154,1.2603671531042173,1.4333480371477345,
71358.8,20.30000000000291,-0.20,-0.76,0.73,-1.08,0.68,-0.29,41.88786578473532,1.1153226216873788,1.8300909669289052,
71358.9,20.39999999999418,-0.21,-0.79,0.82,-1.06,0.68,-0.25,41.280535364745454,1.1327129083461702,1.7957975675478741,
71359.1,20.60000000000582,0.00,-0.91,0.37,-0.01,0.01,-0.01,42.74748296683678,1.2647989677666311,1.4356404422202846,
71359.2,20.69999999999709,-0.01,-0.91,0.37,-0.01,0.01,-0.01,43.74801595501217,1.236580135410704,1.4410553549960095,
71359.3,20.80000000000291,0.01,-0.91,0.37,-0.01,0.02,-0.00,43.71521588646223,1.242411766053947,1.4464921693360981,
71359.4,20.89999999999418,0.00,-0.91,0.37,-0.01,-0.00,-0.00,43.75926073415774,1.2559875680887962,1.4221667675170078,
71359.5,21.0,-0.01,-0.91,0.36,-0.00,0.02,0.00,43.687118238675346,1.2487541847115189,1.452176827599041,
71359.6,21.10000000000582,0.00,-0.91,0.36,-0.01,0.02,0.01,42.180457560344216,1.2487431547648835,1.4362049820128455,
71359.7,21.19999999999709,0.00,-0.91,0.36,-0.01,0.01,0.00,44.173020046177506,1.2149705252635754,1.4272298940589638,
71359.8,21.30000000000291,0.00,-0.91,0.36,-0.01,0.01,-0.00,43.53688206566933,1.2534445710060929,1.4346289502086007,
71359.9,21.39999999999418,0.00,-0.91,0.37,-0.01,-0.00,-0.00,42.62036133117598,1.2680810984985942,1.4300233122761856,
71360.1,21.60000000000582,-0.17,-0.95,0.77,1.38,-0.44,0.85,44.23279665587515,1.1984868319686004,1.5203598654219248,
71360.2,21.69999999999709,-0.17,-0.94,0.77,1.54,-0.48,0.93,42.80745963030275,1.1734873626594995,1.5299042060002759,
71360.3,21.80000000000291,-0.18,-0.95,0.76,1.62,-0.50,0.97,42.2863157534444,1.1634808301354962,1.5336599412407674,
71360.4,21.89999999999418,-0.15,-0.35,0.84,1.70,-0.53,1.01,40.1007057294507,0.5923844513184395,2.3057620999359782,
71360.5,22.0,-0.16,-0.93,0.76,1.78,-0.57,1.06,42.18772925863633,1.1584945011581977,1.5961618719196415,
71360.6,22.10000000000582,-0.20,-0.95,0.76,1.42,-0.45,0.87,38.196777350975566,0.048422263919167846,2.5244128047695784,
71360.7,22.19999999999709,-0.20,-0.95,0.77,1.92,-0.67,1.14,37.72689226533243,6.130678571111887,2.540778770006238,
71360.8,22.30000000000291,-0.19,-0.94,0.76,1.99,-0.72,1.17,42.23083707434652,1.1567578850077849,1.6049012437833412,
71360.9,22.39999999999418,-0.17,-0.94,0.77,2.05,-0.77,1.19,38.84563682062633,5.93939107989559,2.598185539419036,
71361.1,22.60000000000582,0.13,0.37,0.85,0.05,0.10,0.06,38.90844381365053,5.771329464747762,2.558063210444825,
71361.2,22.69999999999709,0.13,0.37,0.85,0.06,0.10,0.07,38.766704786453026,5.76490461893942,2.5975653409319537,
71361.3,22.80000000000291,0.13,0.36,0.86,0.02,0.09,0.04,38.18919873472079,5.855706129138794,2.577857571283617,
71361.4,22.89999999999418,0.09,0.34,0.91,0.01,0.08,0.03,38.96263594778978,5.758772123506051,2.5592183181615242,
71361.5,23.0,0.11,0.36,0.92,-0.01,0.05,0.02,39.302460482773846,5.686769277510724,2.594700814002828,
71361.6,23.10000000000582,0.12,0.36,0.86,-0.03,0.04,0.01,38.766435224301965,5.885032592824887,2.609150801923077,
71361.7,23.19999999999709,0.13,0.37,0.84,0.06,0.10,0.07,39.13935104214172,5.7217851692843125,2.592215889743903,
71361.8,23.30000000000291,0.13,0.37,0.87,-0.07,0.03,0.00,38.808567353098724,5.804304926533115,2.583499204749358,
71361.9,23.39999999999418,0.12,0.37,0.87,-0.07,0.02,-0.00,39.63886224401502,5.7694100711313165,2.656727495827803,
71362.1,23.60000000000582,0.11,0.31,0.83,0.07,0.05,0.03,38.68209534138501,5.771029758153726,2.6390785188867216,
71362.2,23.69999999999709,0.13,0.31,0.82,0.01,0.02,0.05,38.24976862675119,5.774419442931803,2.63254268284239,
71362.3,23.80000000000291,0.13,0.16,0.78,-0.01,0.01,0.05,38.31116025389991,5.9938423552425295,2.621741881264459,
71362.4,23.89999999999418,0.14,0.32,0.82,-0.03,-0.01,0.05,37.14366163963914,5.78315529213125,2.614378484025865,
71362.5,24.0,0.11,0.30,0.85,-0.06,-0.01,0.04,38.095298922570485,5.817421050352015,2.6189661220467153,
71362.6,24.10000000000582,0.15,0.32,0.83,0.06,0.04,0.04,38.71834448940192,0.7368140594537991,2.3980648174220307,
71362.7,24.19999999999709,0.15,0.31,0.83,-0.12,0.00,0.01,39.03651239544844,5.850272353576751,2.62279856766495,
71362.8,24.30000000000291,0.15,0.30,0.83,-0.13,0.01,0.01,41.52293101407943,1.0792256278379833,1.9684497149880247,
71362.9,24.39999999999418,0.14,0.29,0.82,-0.15,0.01,0.00,40.057589792697215,5.844567565774549,2.644001434846407,
71363.1,24.60000000000582,-0.03,-0.91,0.60,-1.14,0.66,-0.55,42.79052698904279,1.2311403308322013,1.6184885076083504,
71363.2,24.69999999999709,-0.04,-0.92,0.61,-1.04,0.60,-0.46,44.834573712705236,1.2535173161636504,1.458818336487359,
71363.3,24.80000000000291,-0.05,-0.92,0.59,-0.99,0.57,-0.42,42.8774089702258,1.2362798804289024,1.602753323405169,
71363.4,24.89999999999418,0.00,-0.94,0.39,-0.94,0.56,-0.39,42.855894577059054,1.2362798804289024,1.5749964614790852,
71363.5,25.0,-0.05,-0.92,0.59,-0.90,0.55,-0.37,42.800407708338476,1.28874855940439,1.395604120433228,
71363.6,25.10000000000582,-0.04,-0.95,0.57,-1.11,0.64,-0.53,42.856367088216885,1.2362798804289024,1.5644961710772927,
71363.7,25.19999999999709,-0.04,-0.94,0.56,-0.82,0.54,-0.34,42.11650745254169,1.2511488187194566,1.545150363651378,
71363.8,25.30000000000291,-0.05,-0.92,0.55,-0.77,0.53,-0.32,42.01529483414343,1.2486674144897103,1.4670767363856172,
71363.9,25.39999999999418,-0.05,-0.93,0.55,-0.72,0.51,-0.29,44.28731872669647,1.2341756316774388,1.3939795747995356,
71364.1,25.60000000000582,0.00,-0.92,0.34,-0.05,0.01,-0.04,43.02539250256759,1.25871089894143,1.4196123227110942,
71364.2,25.69999999999709,0.00,-0.92,0.35,-0.06,0.01,-0.05,43.2345937878454,1.27315983570209,1.4025451326544789,
71364.3,25.80000000000291,-0.01,-0.93,0.35,-0.06,0.01,-0.05,43.34574719623599,1.2537578565036576,1.435654713986159,
71364.4,25.89999999999418,-0.00,-0.92,0.35,-0.06,0.01,-0.05,44.4320121083887,1.2801481339153515,1.4057520988285066,
71364.5,26.0,-0.00,-0.92,0.34,-0.06,0.01,-0.06,42.863966218725025,1.2520353001139681,1.4100639499492846,
71364.6,26.10000000000582,-0.00,-0.92,0.35,-0.05,0.01,-0.04,43.312630952182985,1.2531731074524215,1.4336864562327567,
71364.7,26.19999999999709,-0.01,-0.93,0.35,-0.06,0.01,-0.05,42.662017064363006,1.2461096971191052,1.395029901528194,
71364.8,26.30000000000291,0.00,-0.92,0.36,-0.06,0.01,-0.05,45.16122783981853,1.2797713205412369,1.382805017158874,
71364.9,26.39999999999418,-0.00,-0.92,0.34,-0.06,0.01,-0.06,43.15864108147985,1.2584149212068914,1.3996602567712026,
71365.1,26.60000000000582,-0.08,-0.94,0.57,0.81,-0.39,0.54,44.46667178910515,1.2278029160643074,1.4365856976375968,
71365.2,26.69999999999709,-0.09,-0.94,0.62,0.86,-0.41,0.56,42.34482376867331,1.1013715273338434,1.7311240225084104,
71365.3,26.80000000000291,-0.10,-0.94,0.63,0.91,-0.44,0.58,41.60786824628246,1.2357111857314813,1.4423425916477957,
71365.4,26.89999999999418,-0.11,-0.96,0.65,0.97,-0.48,0.62,41.97482459760851,1.2213507663745655,1.4784670809832108,
71365.5,27.0,-0.07,-0.94,0.56,1.00,-0.50,0.64,39.502861921638036,0.4950826349515736,2.4780107174469492,
71365.6,27.10000000000582,-0.12,-0.96,0.66,1.10,-0.59,0.71,42.51501029048447,1.203977540555043,1.5223238721054821,
71365.7,27.19999999999709,-0.12,-0.97,0.67,0.79,-0.38,0.53,39.22601942588618,6.087278474430644,2.6521126114107196,
71365.8,27.30000000000291,-0.10,-0.94,0.73,1.23,-0.76,0.77,42.471484551402256,1.177547044107311,1.5156726242028171,
71365.9,27.39999999999418,-0.09,-0.94,0.74,1.30,-0.83,0.79,42.46620420993616,1.1563326386806263,1.5104765236843989,
71366.1,27.60000000000582,0.22,0.40,0.85,-0.04,0.10,-0.01,38.051718752245606,5.600927122605962,2.6895692474081945,
71366.2,27.69999999999709,0.22,0.40,0.86,-0.05,0.09,0.01,39.21663550076676,5.555965877016863,2.6856202474408164,
71366.3,27.80000000000291,0.22,0.39,0.86,-0.01,0.10,-0.03,37.77123905830996,5.572996231088828,2.684882768308607,
71366.4,27.89999999999418,0.24,0.39,0.86,-0.08,0.07,0.03,38.15956629732576,5.633511437281521,2.703137544199325,
71366.5,28.0,0.24,0.40,0.85,-0.08,0.06,0.03,36.51402059483453,5.589558582728347,2.6841606816040597,
71366.6,28.10000000000582,0.23,0.40,0.85,-0.10,0.05,0.02,37.68281571220494,5.569854631221774,2.705748537448627,
71366.7,28.19999999999709,0.23,0.40,0.85,-0.02,0.10,-0.03,38.82609946930028,5.576007927610215,2.7035329675508506,
71366.8,28.30000000000291,0.23,0.40,0.85,-0.03,0.10,-0.02,39.50378842592188,5.572529976441048,2.7087118063165265,
71366.9,28.39999999999418,0.22,0.40,0.85,-0.10,0.01,-0.02,38.54549260289716,5.751214969168653,2.7583995059791575,
71367.1,28.60000000000582,0.23,0.23,0.75,-1.06,0.32,-0.39,38.980751660274585,0.03268203345100508,2.7721022998664053,
71367.2,28.69999999999709,0.22,0.22,0.74,-1.13,0.34,-0.40,39.03607049896288,5.8883941874798245,2.7879190847755755,
71367.3,28.80000000000291,0.20,0.21,0.73,-1.17,0.35,-0.41,38.47806388060606,5.937129114780755,2.7822204245866007,
71367.4,28.89999999999418,0.21,0.16,0.73,-1.30,0.40,-0.45,40.079673152359916,1.0123326000746178,2.246573795347122,
71367.5,29.0,0.21,0.15,0.74,-0.97,0.31,-0.38,39.191867778915565,5.909622298556503,2.793400030556859,
71367.6,29.10000000000582,0.19,0.10,0.73,-1.40,0.45,-0.49,41.60135694902271,1.1957659992171594,1.7364513953365366,
71367.7,29.19999999999709,-0.05,-0.95,0.63,-1.00,0.31,-0.38,38.766513900530185,6.110817030369247,2.8250094682651627,
71367.8,29.30000000000291,-0.05,-0.94,0.57,-1.03,0.32,-0.39,38.77944171851885,6.136674675159239,2.819890323129112,
71367.9,29.39999999999418,0.18,0.08,0.73,-1.58,0.54,-0.60,43.92283460798039,1.309467761812424,1.4264064223083264,
71368.1,29.60000000000582,-0.01,-0.92,0.38,-0.04,0.23,-0.07,43.88313913110593,1.3296933955396164,1.3914072992109663,
71368.2,29.69999999999709,-0.01,-0.92,0.38,-0.05,0.19,-0.07,42.88017723843968,1.3291636763337582,1.3726752160423419,
71368.3,29.80000000000291,-0.01,-0.92,0.37,-0.05,0.15,-0.06,43.582052498706396,1.310283945398503,1.398777854714993,
71368.4,29.89999999999418,-0.00,-0.93,0.41,-0.05,0.13,-0.06,43.520056295919474,1.3112759092289963,1.3971307976126537,
71368.5,30.0,-0.00,-0.92,0.40,-0.05,0.12,-0.06,42.89518154758177,1.3215567347705015,1.3805859063612842,
71368.6,30.10000000000582,-0.00,-0.93,0.39,-0.05,0.11,-0.05,44.10103286772318,1.3149808707607193,1.367822924672845,
71368.7,30.19999999999709,-0.01,-0.93,0.39,-0.05,0.10,-0.04,43.087616550466095,1.337774299647134,1.3913614493286346,
71368.8,30.30000000000291,-0.01,-0.92,0.39,-0.04,0.23,-0.07,43.44438283598928,1.320585682290615,1.3790347208239822,
71368.9,30.39999999999418,-0.01,-0.92,0.39,-0.05,0.07,-0.04,43.28803529845169,1.3529916849408274,1.4013487917835656,
71369.1,30.60000000000582,0.00,-0.94,0.35,-0.02,0.03,-0.03,43.338060639581,1.3234746769273262,1.3670265533771473,
71369.2,30.69999999999709,0.01,-0.94,0.34,-0.02,0.02,-0.03,44.43388121692725,1.358439856804865,1.3278307237405946,
71369.3,30.80000000000291,0.00,-0.94,0.34,-0.01,0.02,-0.04,44.220572135602225,1.3243595299922246,1.360523851588228,
71369.4,30.89999999999418,-0.01,-0.94,0.34,-0.02,0.02,-0.03,44.57604850140936,1.3291690447418598,1.342692979876863,
71369.5,31.0,-0.01,-0.93,0.34,-0.01,0.03,-0.04,44.5820210398766,1.3507257349037032,1.3337340999499931,
71369.7,31.19999999999709,-0.01,-0.92,0.34,-0.01,-0.00,-0.03,44.59329770268173,1.356333560266738,1.3314875732894293,
71369.9,31.39999999999418,-0.01,-0.93,0.34,-0.01,-0.02,-0.03,43.4264596761007,1.3080914654547569,1.3405658900540218,
71373.5,35.0,-0.02,-0.94,0.34,0.01,-0.15,0.07,42.355842572188315,1.320467920466042,1.3424007632105721,
71373.6,35.10000000000582,-0.01,-0.93,0.35,0.13,-0.27,0.18,42.84766271338496,1.2709629303936727,1.429832198158072,
71373.7,35.19999999999709,-0.07,-0.96,0.48,0.31,-0.49,0.32,42.759833956646744,1.1769950563147191,1.5415591200898215,
71373.8,35.30000000000291,-0.10,-0.42,0.81,2.11,-0.24,0.80,39.75845193163335,5.721959458888218,2.6326771849304587,
71373.9,35.39999999999418,0.18,0.46,0.76,-0.06,-0.02,-0.00,39.10517357076938,0.8658731758632693,2.3283158088927944,
71374.1,35.60000000000582,0.17,0.38,0.89,-0.06,-0.05,0.02,43.603036591503574,1.3001218615527508,1.440621519275548,
71374.2,35.69999999999709,0.17,0.38,0.89,-0.05,-0.06,0.02,43.376676912829545,1.2978592312984683,1.4448198240814403,
71374.3,35.80000000000291,0.16,0.39,0.89,-0.05,-0.05,0.02,43.22774456295401,1.2864528029082232,1.4583631322936235,
71374.4,35.89999999999418,0.16,0.39,0.88,-0.05,-0.05,0.03,42.74682327378258,1.2909766172140635,1.4573282116438397,
71374.5,36.0,0.16,0.38,0.88,-0.04,-0.05,0.03,42.12362876106474,1.226143281108912,1.5527532174822758,
71374.6,36.10000000000582,0.16,0.39,0.87,-0.04,-0.05,0.03,44.15248464129736,1.296964131586102,1.4793945222353186,
71374.7,36.19999999999709,0.15,0.39,0.87,-0.03,-0.05,0.02,43.38231321633276,1.3068990294932428,1.480544959711497,
71374.8,36.30000000000291,0.15,0.39,0.88,-0.02,-0.05,0.02,43.111985572460014,1.310283945398503,1.4811420033046299,
71374.9,36.39999999999418,0.16,0.39,0.88,-0.01,-0.05,0.01,42.500689406173166,1.2986874353228592,1.495196146723225,
71375.1,36.60000000000582,0.15,0.39,0.85,0.19,0.04,0.13,38.55762829843143,5.787168955548239,2.628363459542696,
71375.2,36.69999999999709,0.15,0.36,0.80,0.16,0.07,0.13,38.550447468220135,5.7961528308654415,2.610997803227053,
71375.3,36.80000000000291,0.14,0.36,0.85,0.13,0.05,0.13,38.5697964734065,5.78315529213125,2.6357732678963988,
71375.4,36.89999999999418,0.13,0.35,0.86,0.14,0.05,0.13,39.36715128123954,5.807410398583489,2.6003317596839954,
71375.5,37.0,0.14,0.36,0.85,0.19,0.02,0.14,38.85252887522252,5.756884843455297,2.6285256404425703,
71375.6,37.10000000000582,0.14,0.36,0.85,0.10,0.01,0.12,39.38784711049844,5.807874494662945,2.599458333696118,
71375.7,37.19999999999709,0.15,0.37,0.86,0.08,0.00,0.11,38.19560315010092,5.842742412273638,2.65880465928064,
71375.8,37.30000000000291,0.15,0.37,0.87,0.08,-0.00,0.10,39.32464494436027,5.811043871226025,2.623300395967297,
71375.9,37.39999999999418,0.11,0.25,0.81,0.07,-0.01,0.09,39.571353274812324,5.917817960304429,2.615482506672182,
71376.1,37.60000000000582,0.07,0.18,0.89,-0.90,0.12,-0.34,39.1600306435018,0.04899039113332151,2.6173006608245224,
71376.2,37.69999999999709,0.05,0.17,0.89,-0.92,0.14,-0.36,38.7242211025606,0.366162359153568,2.5811409761078146,
71376.3,37.80000000000291,0.04,0.16,0.88,-0.95,0.15,-0.39,39.45200248403115,6.227028198269066,2.6526818104551584,
71376.4,37.89999999999418,0.04,0.14,0.89,-0.97,0.14,-0.40,38.62989645339475,0.7678113966161842,2.340376974427913,
71376.5,38.0,0.04,0.13,0.89,-0.98,0.14,-0.41,38.70622430565916,6.2330582252437186,2.6648351862055106,
71376.6,38.10000000000582,0.04,0.12,0.88,-1.00,0.13,-0.41,41.16519160650173,1.036217183204773,2.008009006773613,
71376.7,38.19999999999709,0.04,0.11,0.90,-0.89,0.12,-0.33,40.4067185007642,6.263437354942366,2.645206119985056,
71376.8,38.30000000000291,0.04,0.11,0.91,-1.05,0.15,-0.41,39.43650339469767,6.218654674096198,2.6501870160500043,
71376.9,38.39999999999418,0.04,0.11,0.91,-1.06,0.16,-0.41,39.710091916287475,0.018525929688580793,2.6302137059580293,
71377.1,38.60000000000582,-0.06,-0.92,0.50,-0.41,0.28,-0.18,42.98647345386686,1.3131033576150117,1.4617086389098783,
71377.2,38.69999999999709,-0.03,-0.91,0.44,-0.40,0.28,-0.17,42.78997663004737,1.2998243176414617,1.4654366926184028,
71377.3,38.80000000000291,-0.06,-0.92,0.50,-0.36,0.27,-0.13,42.5576808578663,1.293731756705757,1.452800124873258,
71377.4,38.89999999999418,-0.02,-0.92,0.41,-0.43,0.28,-0.20,43.565346320211894,1.3165810916529879,1.4189464125771336,
71377.5,39.0,-0.06,-0.92,0.49,-0.34,0.26,-0.11,43.21440963382469,1.298504520853993,1.4674059096063894,
71377.6,39.10000000000582,-0.06,-0.91,0.48,-0.31,0.22,-0.08,43.738250993838335,1.30214784265599,1.478526426078053,
71377.7,39.19999999999709,-0.05,-0.90,0.46,-0.29,0.19,-0.07,43.26421269363398,1.2987545682193475,1.4649688744675673,
71377.8,39.30000000000291,-0.04,-0.89,0.45,-0.28,0.19,-0.07,43.876566638696794,1.309467761812424,1.4338493245042048,
71377.9,39.39999999999418,-0.04,-0.90,0.44,-0.27,0.19,-0.07,43.16107505611972,1.2980030790337806,1.4621516847922686,
71378.1,39.60000000000582,-0.02,-0.91,0.37,-0.03,-0.01,-0.01,42.56976979031012,1.2943073057900423,1.3712111505681575,
71378.2,39.69999999999709,-0.04,-0.92,0.37,-0.03,-0.01,-0.01,42.8869595564899,1.2789281789877016,1.3572238655251454,
71378.3,39.80000000000291,-0.03,-0.91,0.37,-0.03,-0.01,-0.01,43.47430160451114,1.2763050465620716,1.4121067443916255,
71378.4,39.89999999999418,-0.02,-0.91,0.37,-0.03,-0.01,-0.01,43.251493615827876,1.2967488085122736,1.4026115011905698,
71378.5,40.0,-0.02,-0.91,0.37,-0.03,-0.01,-0.01,42.66157404503495,1.2962630666438777,1.3866892987748056,
71378.6,40.10000000000582,-0.03,-0.91,0.36,-0.03,-0.00,-0.02,43.33884862337716,1.2306958544944389,1.5096120962435635,
71378.7,40.19999999999709,-0.03,-0.91,0.37,-0.04,-0.01,-0.00,44.324671459583314,1.2998126105500831,1.3847259387674549,
71378.8,40.30000000000291,-0.03,-0.91,0.37,-0.04,-0.02,-0.00,44.54335640698846,1.3069341672557817,1.372614752961296,
71378.9,40.39999999999418,-0.03,-0.91,0.37,-0.04,-0.03,-0.00,40.8686358960022,0.9858226737950924,1.9770476656153284,
71379.1,40.60000000000582,-0.16,-0.52,0.91,2.57,-0.48,0.90,39.790645885685244,0.47553387323390056,2.40554672267901,
71379.2,40.69999999999709,-0.16,-0.48,0.91,2.55,-0.50,0.89,38.64495309869065,0.08594723089434449,2.539074158208904,
71379.3,40.80000000000291,-0.12,-0.33,0.84,2.49,-0.55,0.88,40.057016863466,0.6759819041418346,2.3340340610460495,
71379.4,40.89999999999418,-0.13,-0.24,0.87,2.47,-0.59,0.87,38.93044181614177,5.928514414805742,2.602543774060843,
71379.5,41.0,-0.13,-0.22,0.85,2.40,-0.62,0.86,39.754749401801035,0.6631339295479448,2.341333181554554,
71379.6,41.10000000000582,-0.13,-0.19,0.82,2.37,-0.62,0.86,38.96037602487944,5.900200620395203,2.617959209010765,
71379.7,41.19999999999709,-0.13,-0.17,0.80,2.30,-0.63,0.86,40.61977843366456,0.7157435896688801,2.2463265028462334,
71379.8,41.30000000000291,0.10,0.36,0.92,2.24,-0.65,0.85,38.23714555245985,0.5751137240707789,2.3847997519641986,
71379.9,41.39999999999418,0.10,0.24,0.92,2.58,-0.46,0.90,39.563775097935235,5.93847630353035,2.6244380561401566,
71380.1,41.60000000000582,0.14,0.30,0.93,-0.07,0.00,-0.05,38.853913573795886,5.874657712918852,2.6687072300045567,
71380.2,41.69999999999709,0.14,0.28,0.81,-0.08,-0.02,-0.02,37.600889617135394,5.924807487016481,2.6461669738005793,
71380.3,41.80000000000291,0.14,0.30,0.93,-0.06,0.00,-0.07,39.01058317943991,5.905655111756048,2.677250451413882,
71380.4,41.89999999999418,0.14,0.30,0.93,-0.04,-0.01,-0.07,38.99435471962576,5.905123133488934,2.676936179030486,
71380.5,42.0,0.12,0.29,0.92,-0.08,-0.01,-0.03,38.669422028264144,5.900053437255151,2.666681122590621,
71380.6,42.10000000000582,0.11,0.29,0.93,-0.07,-0.00,-0.04,39.02247301235533,0.5041204338135395,2.6066022353850653,
71380.7,42.19999999999709,0.12,0.29,0.92,0.02,-0.01,-0.02,37.996344561023236,5.8945727522419045,2.672387330576236,
71380.8,42.30000000000291,0.12,0.30,0.93,0.03,-0.00,-0.01,37.561195401637576,5.8909964460324495,2.676414188208918,
71380.9,42.39999999999418,0.12,0.30,0.92,0.04,0.01,-0.01,41.6252675667076,1.0681652274345408,2.03725580766823,
71381.1,42.60000000000582,-0.02,-0.75,0.70,-1.05,0.43,-0.45,41.39393554616425,1.1478342184835888,1.9826407234649643,
71381.2,42.69999999999709,-0.01,-0.82,0.60,-1.03,0.45,-0.45,41.96329229219271,1.1732480228971105,1.9264054399473742,
71381.3,42.80000000000291,-0.05,-0.72,0.77,-0.97,0.47,-0.38,44.33432642997974,1.286911867026641,1.6238275113770824,
71381.4,42.89999999999418,-0.05,-0.72,0.80,-0.97,0.45,-0.36,41.43203712104921,1.2297789475256318,1.872716880200958,
71381.5,43.0,-0.05,-0.72,0.80,-0.96,0.44,-0.35,42.76547439231792,1.3157227576371984,1.4649058133830681,
71381.6,43.10000000000582,-0.00,-0.94,0.45,-0.97,0.42,-0.35,44.1629188346966,1.3189923992520478,1.4271968291090031,
71381.7,43.19999999999709,-0.05,-0.72,0.79,-0.19,0.17,-0.08,41.7448931008333,1.2316973553161072,1.8521316812526705,
71381.8,43.30000000000291,-0.00,-0.71,0.69,0.07,0.17,0.02,41.85436058524846,1.2224271589442837,1.8354981472998142,
71381.9,43.39999999999418,-0.02,-0.74,0.71,-1.01,0.46,-0.44,43.140668747714145,1.3271370754769758,1.3705770208238517,
71382.1,43.60000000000582,-0.02,-0.92,0.34,0.07,0.02,0.10,43.420827951571816,1.3157227576371984,1.3674204232109604,
71382.2,43.69999999999709,-0.02,-0.91,0.33,0.08,0.03,0.10,44.332291842403095,1.30214784265599,1.3829217402331841,
71382.3,43.80000000000291,-0.01,-0.93,0.34,0.08,0.02,0.10,43.350023068044614,1.3131033576150117,1.4015934317889858,
71382.4,43.89999999999418,-0.01,-0.93,0.36,-0.07,-0.03,-0.06,43.47952506640338,1.3156631366660434,1.3878528545782842,
71382.5,44.0,-0.02,-0.91,0.34,0.03,-0.06,0.10,42.1992014142448,1.3302002686945453,1.3892282069495352,
71382.6,44.10000000000582,-0.02,-0.91,0.34,0.03,-0.09,0.09,43.75642124305872,1.3424263058430244,1.376693817788198,
71382.7,44.19999999999709,-0.03,-0.93,0.36,0.03,-0.11,0.09,44.67418717783235,1.3220093147101633,1.3896131168534074,
71382.8,44.30000000000291,-0.02,-0.91,0.35,0.03,-0.11,0.09,42.227835606386456,1.2947304441637955,1.3497130769167804,
71382.9,44.39999999999418,-0.02,-0.92,0.34,0.03,-0.11,0.09,43.00325685340588,1.3062033387514043,1.3886416002262976,
71383.1,44.60000000000582,-0.01,-0.93,0.34,-0.03,-0.09,0.03,43.295715723383076,1.2881902574209934,1.3696539348994694,
71383.2,44.69999999999709,-0.02,-0.93,0.34,-0.03,-0.08,0.03,42.378507524451585,1.3047983319214371,1.3584848659566235,
71383.3,44.80000000000291,-0.06,-0.94,0.42,0.05,-0.28,0.05,42.396971589961474,1.3030225948215106,1.3646068315126512,
71383.4,44.89999999999418,-0.01,-0.93,0.34,-0.06,-0.09,0.02,42.49681635134566,1.2922999916196396,1.4036537763013544,
71383.5,45.0,-0.02,-0.93,0.34,-0.07,-0.09,0.01,43.89647024533977,1.2920542598553053,1.4309217123382867,
71383.6,45.10000000000582,-0.02,-0.93,0.34,-0.07,-0.09,0.01,42.91632439992968,1.3064986183717342,1.3858984760180553,
71383.7,45.19999999999709,-0.01,-0.92,0.35,-0.07,-0.09,0.01,43.56074379530267,1.3283247809221987,1.3565851307574617,
71383.9,45.39999999999418,-0.01,-0.94,0.34,-0.07,-0.10,0.02,43.32504356604849,1.3008843200401747,1.3655501051324939,
71384.1,45.60000000000582,-0.12,-0.99,0.87,2.66,-0.46,1.16,42.759833956646744,1.1769950563147191,1.5415591200898215,
71384.2,45.69999999999709,-0.12,-0.98,0.90,1.91,-0.71,1.15,42.61662938337569,1.161221022650448,1.5804171328259653,
71384.3,45.80000000000291,-0.13,-0.97,0.91,2.07,-0.64,1.18,39.64035443837505,0.6930688286658493,2.3156232790502216,
71384.4,45.89999999999418,-0.13,-0.95,0.92,2.31,-0.57,1.23,42.56099270458808,1.1490145678523611,1.6107496326680828,
71384.5,46.0,-0.00,0.04,0.70,2.40,-0.54,1.23,42.07313275714087,1.1109878799066892,1.6516962105385904,
71384.6,46.10000000000582,0.16,0.29,0.72,2.47,-0.50,1.22,37.595482441378515,5.9480974038065595,2.6560348764931376,
71384.7,46.19999999999709,-0.14,-0.93,0.91,2.51,-0.48,1.21,41.97593238988266,1.1013715273338434,1.661926941217441,
71384.8,46.30000000000291,-0.15,-0.85,0.89,2.57,-0.46,1.19,38.65779869573538,5.78730798843208,2.692229249250613,
71384.9,46.39999999999418,-0.17,-0.84,0.88,2.60,-0.46,1.18,40.08748058933113,5.757376214406254,2.663899476330249,
71385.1,46.60000000000582,0.14,0.33,0.88,-0.12,-0.00,-0.04,38.124389831182874,5.869835375966825,2.6952855087230136,
71385.2,46.69999999999709,0.14,0.33,0.88,-0.12,-0.02,-0.03,39.24078235713452,5.811124435151257,2.6476311386900355,
71385.3,46.80000000000291,0.17,0.27,0.95,-0.12,0.00,-0.04,38.080426730802266,5.940204373812013,2.7183319158592094,
71385.4,46.89999999999418,0.24,0.26,0.84,-0.13,-0.03,-0.00,38.21396341653139,5.884331306532398,2.7068971157657344,
71385.5,47.0,0.17,0.28,0.78,-0.14,-0.04,0.01,39.529443456745,5.842885103371377,2.7170312980776794,
71385.6,47.10000000000582,0.14,0.33,0.88,-0.14,-0.04,0.01,37.490693511857046,5.870812363707275,2.722094163599054,
71385.7,47.19999999999709,0.15,0.33,0.87,-0.13,-0.04,0.01,40.216259149751856,5.85482816084374,2.6455964159453638,
71385.8,47.30000000000291,0.15,0.30,0.90,-0.13,-0.07,0.02,37.577348230017506,5.780265680652903,2.666170246916965,
71385.9,47.39999999999418,0.14,0.33,0.88,-0.11,-0.09,0.01,39.08877844087738,0.20164799616877863,2.676684334083614,
71386.1,47.60000000000582,0.05,-0.04,0.92,-1.22,0.36,-0.57,38.701883675087444,0.47074455944547056,2.6125001307602433,
71386.2,47.69999999999709,0.05,-0.04,0.92,-1.23,0.36,-0.57,38.96125639657941,0.47561362172739213,2.6082488795009544,
71386.3,47.80000000000291,0.04,-0.05,0.93,-1.24,0.36,-0.56,39.67312818520869,0.9303082654621474,2.2891261283027724,
71386.4,47.89999999999418,0.03,-0.07,0.94,-1.28,0.35,-0.53,40.216158444088116,0.4956417747368658,2.588969337287285,
71386.5,48.0,0.03,-0.09,0.96,-1.28,0.35,-0.53,39.59504261899462,0.5457266231683536,2.572758842941288,
71386.6,48.10000000000582,0.03,-0.12,0.95,-1.29,0.33,-0.53,40.842375053368286,1.1621132854961314,1.9395037123228456,
71386.7,48.19999999999709,0.03,-0.13,0.96,-1.30,0.30,-0.54,38.76688277383158,0.616077941028655,2.546374743284572,
71386.8,48.30000000000291,-0.02,-0.82,0.63,-1.09,0.41,-0.50,40.307921057777214,0.6952924769823497,2.5312329711640413,
71386.9,48.39999999999418,-0.02,-0.87,0.57,-1.21,0.35,-0.58,42.56939041142121,1.2828744390145768,1.6072155162726744,
71387.1,48.60000000000582,-0.02,-0.91,0.51,-0.66,0.39,-0.35,43.14144527018074,1.3299458989959128,1.4623352235844955,
71387.2,48.69999999999709,-0.02,-0.91,0.51,-0.61,0.40,-0.32,43.69088348843497,1.3334328583164727,1.5195045628210124,
71387.3,48.80000000000291,-0.03,-0.92,0.50,-0.58,0.39,-0.30,44.53533540908837,1.3607637794419005,1.350081378483886,
71387.4,48.89999999999418,-0.02,-0.93,0.49,-0.55,0.38,-0.27,43.87691078460288,1.3140437006767702,1.4740113264432315,
71387.5,49.0,-0.02,-0.93,0.37,-0.54,0.37,-0.26,43.31339400231757,1.3151156557713584,1.4625352546097685,
71387.6,49.10000000000582,-0.01,-0.92,0.36,-0.52,0.36,-0.26,42.5153113595561,1.3409974331950067,1.323670875924451,
71387.7,49.19999999999709,-0.01,-0.93,0.35,-0.49,0.36,-0.25,43.03213334242215,1.3243440759792617,1.4653307499364623,
71387.8,49.30000000000291,-0.02,-0.93,0.49,-0.47,0.37,-0.23,41.463310287530106,1.3082944217086199,1.377865894741696,
71387.9,49.39999999999418,-0.02,-0.91,0.52,-0.44,0.38,-0.21,43.072151095574505,1.3310277390489813,1.3889362159477248,
71388.1,49.60000000000582,-0.02,-0.92,0.35,-0.11,-0.08,-0.04,43.47491920636541,1.320754847832114,1.3740137418924467,
71388.2,49.69999999999709,-0.02,-0.92,0.36,-0.10,-0.09,-0.05,44.28879203590904,1.3170395832961987,1.3677733383960604,
71388.3,49.80000000000291,-0.02,-0.92,0.36,-0.11,-0.09,-0.04,43.87691078460288,1.3194472458419648,1.3730514255711082,
71388.4,49.89999999999418,-0.03,-0.93,0.36,-0.10,-0.08,-0.03,42.24746264570217,1.3379365082886137,1.3735313343750615,
71388.5,50.0,-0.02,-0.93,0.35,-0.09,-0.07,-0.02,44.14333131969086,1.3244172612673337,1.374722484274506,
71388.6,50.10000000000582,-0.02,-0.94,0.36,-0.09,-0.07,-0.02,44.33061019205578,1.3664886441951924,1.337235850161175,
71388.7,50.19999999999709,-0.02,-0.94,0.36,-0.08,-0.07,-0.02,44.24506413149381,1.3893117458700932,1.312071790690741,
71388.8,50.30000000000291,0.00,-0.93,0.36,-0.07,-0.06,-0.02,43.67821653868207,1.3177245696668494,1.3763418387871909,
71388.9,50.39999999999418,-0.13,-0.99,0.52,0.39,-0.76,0.43,43.13340236985717,1.360731424354446,1.3520549142489875,
71389.1,50.60000000000582,-0.23,-1.06,0.98,1.64,-0.73,1.04,40.876572752617115,1.151327938242134,1.6288082805917028,
71389.2,50.69999999999709,-0.10,-0.99,0.89,3.66,-1.22,1.80,43.07889274343063,1.2860385112634032,1.4474537325150765,
71389.3,50.80000000000291,-0.10,-0.99,0.88,1.50,-0.88,1.02,42.52453056766177,1.2485974089549767,1.4721048314263885,
71389.4,50.89999999999418,-0.16,-1.00,0.92,1.57,-0.81,1.03,38.27028743032903,0.227138688693297,2.59629196178008,
71389.5,51.0,-0.19,-1.01,0.93,2.11,-0.37,1.11,42.62312400563807,1.2413066799974555,1.4935313246932624,
71389.6,51.10000000000582,-0.21,-1.01,0.94,2.23,-0.38,1.14,42.797577034220055,1.2314388320450889,1.522644155066199,
71389.7,51.19999999999709,0.18,0.38,0.81,2.35,-0.42,1.16,39.49078500106069,5.703289837332649,2.6449609954726157,
71389.8,51.30000000000291,0.18,0.41,0.89,2.44,-0.49,1.20,42.48648844044421,1.2053296970786525,1.5477281242228729,
71389.9,51.39999999999418,-0.22,-1.04,0.94,2.56,-0.58,1.24,42.21903480658931,1.1759505463561764,1.5760072700733279,
71390.1,51.60000000000582,0.18,0.36,0.90,-0.07,-0.02,0.03,38.702220866508426,5.848212654392125,2.7135185486713125,
71390.2,51.69999999999709,0.17,0.29,0.93,-0.07,-0.02,0.04,40.67179612458737,5.699129402429654,2.714001258691275,
71390.3,51.80000000000291,0.13,0.28,0.91,-0.05,-0.02,0.04,39.07968525973565,5.8498230436347765,2.7170206409851656,
71390.4,51.89999999999418,0.13,0.26,0.91,-0.04,-0.03,0.02,39.23650723497187,5.8673519975058985,2.7058425349237893,
71390.5,52.0,0.19,0.35,0.90,-0.05,-0.04,-0.02,38.315914448176756,5.933713948145054,2.7148690467488206,
71390.6,52.10000000000582,0.18,0.36,0.90,-0.05,-0.04,-0.04,38.605340304159995,5.775612925320055,2.7029174785368015,
71390.7,52.19999999999709,0.18,0.37,0.90,-0.06,-0.03,-0.05,38.347259354483214,5.875851324512482,2.7074609987133678,
71390.8,52.30000000000291,0.18,0.36,0.90,-0.09,-0.02,-0.00,38.13544545432766,5.908672864278343,2.68745357454946,
71390.9,52.39999999999418,0.18,0.20,0.71,-0.08,-0.02,0.01,38.689287923144825,5.846520574568768,2.7130061533240144,
71391.1,52.60000000000582,0.03,0.06,0.93,-1.14,0.16,-0.52,39.12187495506829,0.12534476657591065,2.6403850299729608,
71391.2,52.69999999999709,0.01,-0.02,1.04,-1.30,0.32,-0.62,38.84334305901077,0.40818722125862844,2.614947494752749,
71391.3,52.80000000000291,0.08,0.16,0.83,-1.18,0.15,-0.53,38.031191146215754,6.142696454425786,2.7053869897165526,
71391.4,52.89999999999418,0.07,0.12,0.84,-1.25,0.15,-0.52,37.7129380982177,6.182230977844748,2.7186586576557668,
71391.5,53.0,0.10,0.18,0.81,-1.25,0.15,-0.51,38.412255856692404,6.200763758506223,2.7075249291555084,
71391.6,53.10000000000582,0.06,0.08,0.90,-1.27,0.17,-0.52,39.07235595660953,6.0437553758464695,2.665097187134396,
71391.7,53.19999999999709,0.09,0.16,0.81,-1.10,0.18,-0.51,40.37201134449459,1.024775690177774,1.9980753632970436,
71391.8,53.30000000000291,0.03,0.07,0.93,-1.12,0.17,-0.52,38.7266755609102,6.218505677342119,2.699896783224572,
71391.9,53.39999999999418,-0.07,-0.89,0.63,-1.30,0.24,-0.58,43.4481645181934,1.1921893646225672,1.711891354291946,
71392.1,53.60000000000582,-0.06,-0.95,0.51,-1.13,0.72,-0.59,43.60746381068268,1.3074917231182486,1.4253547906505772,
71392.2,53.69999999999709,-0.04,-0.92,0.46,-0.15,0.51,-0.09,44.16232104407557,1.3170395832961987,1.3821899729968483,
71392.3,53.80000000000291,-0.07,-0.96,0.56,-1.08,0.70,-0.56,43.74739649396293,1.2948573067587992,1.5010212887278602,
71392.4,53.89999999999418,-0.07,-0.96,0.54,-1.02,0.68,-0.54,44.14165606317914,1.3763751781614273,1.328990451079579,
71392.5,54.0,-0.08,-0.96,0.54,-0.88,0.59,-0.46,41.34546770808138,1.320467920466042,1.5049616420082792,
71392.6,54.10000000000582,-0.08,-0.95,0.53,-0.85,0.57,-0.44,41.871868838159116,1.3233179595384061,1.485911967603103,
71392.7,54.19999999999709,-0.07,-0.95,0.57,-0.82,0.54,-0.42,44.2484960196389,1.403548335696434,1.339581356082236,
71392.8,54.30000000000291,-0.07,-0.96,0.56,-0.73,0.47,-0.37,43.26707293080963,1.3302279030830408,1.4396049111783409,
71392.9,54.39999999999418,-0.07,-0.95,0.52,-1.18,0.74,-0.62,43.448692730621936,1.317813776192192,1.4317949160455998,
71393.1,54.60000000000582,-0.07,-0.91,0.49,0.69,-0.01,0.21,42.14478852717142,1.360338827767971,1.4322582300290772,
71393.2,54.69999999999709,-0.06,-0.92,0.51,0.70,0.01,0.22,42.79496348870974,1.318563200135774,1.5644871312899815,
71393.3,54.80000000000291,-0.07,-0.91,0.50,0.75,0.05,0.26,44.74019333887595,1.3922429258087885,1.3923822394802348,
71393.4,54.89999999999418,-0.14,-0.73,0.80,0.77,0.06,0.27,44.52143977905477,1.3998202095184442,1.3816715896361165,
71393.5,55.0,-0.19,-0.56,0.86,0.78,0.06,0.28,41.9670799556033,1.1779670346037816,1.8461421699805591,
71393.6,55.10000000000582,-0.08,-0.90,0.47,0.79,0.06,0.29,43.54496182108787,1.3786085773328256,1.4025911087274467,
71393.7,55.19999999999709,-0.08,-0.90,0.47,0.79,0.05,0.30,42.74188928908033,1.3945296274197478,1.4031975296709185,
71393.8,55.30000000000291,-0.20,-0.90,0.40,0.79,-0.15,0.32,40.046938709469416,1.0254406040731088,2.2316357190566185,
71393.9,55.39999999999418,-0.07,-0.91,0.50,0.79,-0.44,0.32,42.37586459294961,1.3745242567822111,1.4199029511590153,
71394.1,55.60000000000582,-0.16,-0.05,0.99,0.59,-0.07,0.32,39.03165638299251,0.7952190513712609,2.3386106073309425,
71394.2,55.69999999999709,-0.21,-0.07,1.00,0.62,0.09,0.44,38.41298738708043,0.7909396683862402,2.322085739268222,
71394.3,55.80000000000291,-0.18,-0.06,1.00,0.58,-0.25,0.23,39.98129937858448,0.6035107367651392,2.3877889953915328,
71394.4,55.89999999999418,-0.23,0.20,0.89,0.59,-0.16,0.28,39.67006049907159,0.7992476933515908,2.3550910802077745,
71394.5,56.0,-0.18,-0.02,0.89,0.59,0.12,0.51,39.066759527762215,0.4474120085732473,2.388416876829144,
71394.6,56.10000000000582,-0.18,-0.04,0.88,0.45,0.22,0.57,40.124952336420286,0.7576687695865169,2.3494281841952325,
71394.7,56.19999999999709,-0.18,0.01,0.84,0.39,0.16,0.58,39.759271874620644,0.39768750352364607,2.3642640158653463,
71394.8,56.30000000000291,-0.18,0.04,0.89,0.33,0.11,0.54,40.6710953872649,0.30073788571182625,2.351379460790392,
71394.9,56.39999999999418,-0.19,0.00,0.93,0.25,0.08,0.43,40.381072298788695,0.7216438970024298,2.395364795036956,
71395.1,56.60000000000582,-0.29,0.04,1.05,-0.42,0.29,0.52,39.24677948571067,0.27962322240145626,2.3079146162349353,
71395.2,56.69999999999709,-0.27,0.02,1.04,-0.43,0.30,0.62,39.042159264057105,0.1872233637158242,2.2465399561796904,
71395.3,56.80000000000291,-0.27,0.01,1.03,-0.43,0.31,0.66,39.18188356881277,0.31025182059815787,2.302537281106714,
71395.4,56.89999999999418,-0.27,-0.01,1.04,-0.42,0.30,0.82,40.750173005767714,6.084417351270272,2.203296513803851,
71395.5,57.0,-0.26,-0.02,1.06,-0.37,0.31,0.41,39.32753869745728,0.3075823311907976,2.2947951351812086,
71395.6,57.10000000000582,0.17,0.41,1.10,-0.79,0.10,1.24,40.642651242260264,5.62264528294053,2.1106285247181464,
71395.7,57.19999999999709,0.20,0.50,0.89,-0.93,0.05,1.36,38.0782221223628,0.29293975655810106,2.324190180410964,
71395.8,57.30000000000291,-0.22,-0.16,1.00,-1.19,-0.02,1.57,40.85652579454107,5.280997299638371,2.046202054578929,
71395.9,57.39999999999418,-0.32,-0.19,1.05,-1.42,-0.04,1.85,38.46149893074892,0.2884332950621667,2.31877815506052,
71396.1,57.60000000000582,-0.04,0.48,0.71,-0.12,0.27,-0.03,42.47002472332692,5.2167220900749935,2.037258181192458,
71396.2,57.69999999999709,-0.11,0.49,0.76,-0.03,0.19,-0.09,41.93617173753465,5.21896961843285,2.0343259366189663,
71396.3,57.80000000000291,-0.17,0.47,0.87,0.01,-0.39,-0.12,42.5810756087725,5.227092089909371,1.9789223078386649,
71396.4,57.89999999999418,-0.19,0.48,0.84,-0.22,0.42,0.18,41.53070791595057,5.293584437873286,2.0158704757520907,
71396.5,58.0,-0.19,0.47,0.81,-0.25,0.37,0.15,41.95682661975283,5.198730715279157,1.995281751908372,
71396.6,58.10000000000582,-0.17,0.47,0.85,-0.25,0.33,0.09,40.94202120071749,5.232170907549584,2.0094787141228014,
71396.7,58.19999999999709,-0.15,0.46,0.90,-0.28,0.15,0.08,42.78287741608786,5.26948683870968,2.1100820245326704,
