time,mr,mtheta,mphi,gx,gy,gz,ax,ay,az,
53131.7,46.546071799884466,5.326334692369597,2.0990394934172074,-0.02,-0.09,-0.04,-0.08,-0.02,0.93,
53131.8,45.11515155687721,5.3230514069901815,2.1114341641535774,-0.01,0.06,-0.01,-0.14,-0.04,0.93,
53131.9,45.921412216960405,5.345464310450637,2.105223820934881,-0.01,-0.01,0.02,-0.13,-0.03,0.92,
53132.0,47.10369518413603,5.295439086247194,2.114074079389897,0.00,0.02,0.01,-0.12,-0.03,0.91,
53132.1,47.78309952273921,5.29769162424256,2.1064828545162158,0.01,-0.01,0.01,-0.12,-0.02,0.92,
53132.2,46.35493716962628,5.3106472768214825,2.1109788968208654,0.01,-0.03,0.02,-0.12,-0.03,0.91,
53132.3,47.2701565472339,5.335380638687243,2.0680859177915827,-0.01,0.02,0.06,-0.12,-0.02,0.91,
53132.4,47.69063325224357,5.266191361096402,2.1117874368441365,-0.03,-0.08,0.12,-0.13,-0.04,0.92,
53132.5,46.613562404090075,5.289192605196091,2.1049110989545494,0.08,0.03,0.10,-0.12,-0.03,0.92,
53132.6,47.69794230362564,5.29985782364134,2.0833192384322095,0.07,-0.06,0.08,-0.09,-0.02,0.92,
53132.7,47.36420694997436,5.309186431924781,2.095319235273445,-0.00,-0.08,0.13,-0.08,-0.03,0.91,
53132.8,46.2028678763559,5.289971676239524,2.09811205729127,0.04,-0.04,0.20,-0.08,-0.01,0.92,
53132.9,47.39880272749513,5.209854973932002,2.107370183310622,0.03,-0.15,0.21,-0.08,0.02,0.90,
53133.0,47.3739063198297,5.211502061758329,2.0959325008950893,0.05,-0.15,0.22,-0.07,0.01,0.93,
53133.1,46.79226111228223,5.194163520449427,2.1175978446862214,-0.07,-0.16,0.15,-0.06,0.01,0.93,
53133.2,47.226277642854726,5.133666269491148,2.134901647657662,-0.21,-0.18,0.13,-0.03,-0.01,0.93,
53133.3,47.824609773630144,5.141912841816286,2.1616081142295025,-0.12,-0.06,0.22,-0.04,-0.04,0.95,
53133.4,47.96705744570955,5.147552675091327,2.1538626274296298,-0.15,-0.09,0.17,-0.01,-0.02,0.90,
53133.5,46.49181110690355,5.103920821610961,2.2192784241425043,-0.15,-0.20,0.28,0.02,-0.06,0.91,
53133.6,47.59711545881746,5.093425452382586,2.1981573739605644,-0.09,-0.22,0.35,0.02,-0.07,0.89,
53133.7,46.948561213310896,5.037486299939575,2.239047541409697,-0.11,-0.39,0.34,0.03,-0.10,0.87,
53133.8,46.962489286663676,4.950873789046862,2.2729122479907833,-0.10,-0.42,0.42,0.07,-0.11,0.84,
53133.9,46.18766068984226,4.9309328402626615,2.2920804368851657,0.05,-0.61,0.51,0.15,-0.18,0.84,
53134.0,47.93331305052886,4.814413147555237,2.28149659918581,0.35,-0.68,0.58,0.21,-0.11,0.89,
53134.1,47.56251254927561,4.784223418343153,2.266663297994133,0.41,-0.44,0.71,0.28,-0.05,0.89,
53134.2,47.49846944902541,4.655939905083073,2.216692253301927,0.29,-0.47,0.61,0.20,-0.01,0.87,
53134.3,48.8066255748131,4.627827987207397,2.2093386799576713,0.15,-0.74,0.29,0.31,0.02,0.88,
53134.4,49.26957884942797,4.505007326275949,2.1782001441683407,0.06,-0.56,0.02,0.37,0.05,0.94,
53134.5,49.65924888678845,4.446030446301784,2.163744418487421,0.13,-0.12,-0.02,0.48,0.04,0.90,
53134.6,48.91969133181443,4.479726271802142,2.141801050264043,0.19,0.27,0.03,0.44,0.03,0.83,
53134.7,50.34364011471558,4.489187561015843,2.159142094089776,0.07,0.01,-0.01,0.43,-0.02,0.77,
53134.8,49.14436081586574,4.472185450084044,2.090119837680189,-0.04,-0.24,0.13,0.47,-0.03,0.85,
53134.9,50.01380809336557,4.4837521287259365,2.1446233759799465,-0.06,0.15,-0.13,0.41,-0.02,0.83,
53135.0,48.95344420977956,4.491492039682647,2.1528085300843807,0.03,0.13,-0.16,0.44,-0.00,0.81,
53135.1,50.186732310442366,4.5431733771677525,2.148569932662018,0.07,0.24,-0.13,0.36,0.01,0.79,
53135.2,49.730218177683476,4.534641238239538,2.1497545528101725,0.02,-0.22,0.03,0.47,-0.03,0.87,
53135.3,50.263964228858825,4.531665357129939,2.108420175866326,0.07,0.12,0.09,0.42,0.01,0.81,
53135.4,49.29825757569937,4.549317509467107,2.123950386685385,0.03,-0.12,0.04,0.45,0.01,0.82,
53135.5,51.43501336638302,4.5146802354526585,2.121379683620872,0.04,0.02,0.02,0.44,0.01,0.81,
53135.6,50.197987011433035,4.497268382010994,2.1323376638141727,-0.01,-0.04,0.02,0.43,0.01,0.81,
53135.7,51.360639598821194,4.5221939759031695,2.1183875177437206,0.00,0.01,-0.01,0.43,0.02,0.82,
53135.8,49.933882284476944,4.518474854018553,2.1114313934208426,0.05,0.04,0.03,0.42,0.02,0.81,
53135.9,50.70519006965658,4.564218728322478,2.118647362782159,0.02,-0.07,0.04,0.43,0.02,0.80,
53136.0,50.500266335931336,4.4894917834274946,2.128809920204882,-0.00,-0.01,0.03,0.45,0.01,0.80,
53136.1,50.973190992913125,4.479593407048862,2.1001450745745744,0.00,0.01,0.02,0.44,0.01,0.80,
53136.2,49.813798289229055,4.504819890665424,2.1229868580542446,-0.01,0.01,0.01,0.44,0.02,0.81,
53136.3,49.29317802698463,4.505027282548232,2.117351550601381,-0.01,0.02,0.01,0.44,0.01,0.82,
53136.4,49.71797863952234,4.470274818159792,2.1227568305337865,-0.02,-0.01,0.01,0.43,0.01,0.82,
53136.5,49.59356208218966,4.508116711654973,2.112493715795181,-0.01,-0.02,0.02,0.43,0.01,0.82,
53136.6,49.20852568407227,4.517211339601066,2.135867959735194,0.04,0.06,0.00,0.43,0.02,0.81,
53136.7,49.48057497644909,4.506480810419804,2.121676896128233,-0.02,-0.02,0.00,0.43,0.02,0.82,
53136.8,50.233750606539424,4.512426973373987,2.122045129002027,-0.00,0.09,0.03,0.39,0.01,0.81,
53136.9,50.239594942634646,4.509694381959113,2.1841848762881826,0.01,0.11,0.02,0.41,0.01,0.81,
53137.0,50.639068909291765,4.536232130557951,2.1155143969501493,-0.04,0.00,-0.01,0.43,0.01,0.83,
53137.1,50.38958126438441,4.529619792338711,2.1327592215293487,-0.03,0.00,-0.01,0.39,0.01,0.83,
53137.2,49.36420261687613,4.541800432315835,2.1353077089493726,-0.00,0.02,0.01,0.41,0.00,0.82,
53137.3,50.66574483810536,4.516468889770264,2.1452367930142784,-0.02,-0.00,0.01,0.40,0.00,0.82,
53137.4,50.4936174184421,4.500636451476278,2.1057107268962434,-0.01,-0.01,0.01,0.41,0.00,0.82,
53137.5,50.043123403720514,4.51302085123528,2.1545078104358435,0.00,0.03,-0.00,0.41,0.01,0.82,
53137.6,50.401490057338584,4.507903299932855,2.1347218390292637,-0.05,-0.03,0.01,0.41,0.00,0.82,
53137.7,50.29986580498998,4.525016504078047,2.1580501584821934,-0.03,-0.04,-0.01,0.39,0.00,0.84,
53137.8,49.91650728967322,4.524257666736946,2.1602756779772876,0.00,-0.06,0.03,0.40,-0.00,0.81,
53137.9,51.13664928405067,4.519137860985797,2.140448534551044,-0.00,-0.04,0.03,0.43,-0.00,0.81,
53138.0,50.043123403720514,4.51302085123528,2.1545078104358435,-0.01,0.02,0.01,0.43,-0.00,0.81,
53138.1,49.80320170430813,4.510551525544779,2.156487759798245,-0.02,-0.01,0.01,0.41,-0.01,0.82,
53138.2,49.609067719520795,4.532962283810001,2.135283764282536,-0.01,-0.02,0.01,0.42,-0.01,0.82,
53138.3,50.20406756429204,4.492803491155195,2.128266154643912,-0.00,-0.02,0.01,0.42,-0.00,0.82,
53138.4,50.524359471447035,4.508402743045036,2.1402189622900614,-0.01,-0.02,0.02,0.43,-0.01,0.83,
53138.5,50.34344644539148,4.468334157863409,2.1546145698498003,0.01,0.01,0.00,0.42,-0.00,0.82,
53138.6,50.16176731336327,4.496878272994044,2.1529464162842826,0.01,-0.01,0.01,0.43,-0.01,0.81,
53138.7,49.76670875193577,4.519959562369403,2.156733063182211,0.00,-0.03,0.02,0.42,-0.01,0.81,
53138.8,49.67101871312889,4.475910345424634,2.146688350126722,-0.02,-0.01,0.01,0.42,-0.01,0.81,
53138.9,49.8285640973127,4.513831008820484,2.1322597684042903,0.00,-0.01,0.01,0.42,-0.02,0.81,
53139.0,50.55254494088305,4.513915380174367,2.1666291422017787,-0.01,-0.01,0.00,0.43,-0.01,0.81,
53139.1,50.2024959538866,4.482919604749375,2.1365226575696745,-0.01,-0.01,0.01,0.43,-0.02,0.81,
53139.2,50.00350187736855,4.512851896806717,2.1397635513148767,-0.00,-0.00,0.01,0.42,-0.01,0.82,
53139.3,49.51742622552186,4.537075720089608,2.145331968963209,-0.00,0.00,0.01,0.43,-0.02,0.81,
53139.4,51.071906171593014,4.503819178639068,2.1342969416092723,0.00,-0.01,0.01,0.42,-0.01,0.81,
53139.5,48.51197790236964,4.503849391135908,2.154602974249479,-0.00,0.01,0.00,0.42,-0.02,0.82,
53139.6,51.36289127375911,4.501963203805104,2.153170117913797,-0.01,-0.03,0.01,0.42,-0.01,0.81,
53139.7,49.64748835540424,4.51565354869241,2.1484380187873224,0.01,0.01,0.01,0.42,-0.01,0.81,
53139.8,50.34035160783047,4.508523278545589,2.149900849229579,-0.00,-0.03,0.02,0.43,-0.01,0.81,
53139.9,49.79127734854771,4.488109378729874,2.1396285909951747,-0.00,0.01,0.01,0.43,-0.02,0.81,
53140.0,50.01270738522361,4.488247850419045,2.1439235110479893,0.01,-0.00,0.01,0.43,-0.03,0.82,
53140.1,50.04738754420654,4.507156590378482,2.1255110464029716,0.02,-0.03,0.02,0.43,-0.02,0.81,
53140.2,50.79599787384829,4.497245433317398,2.1407694734126093,0.05,-0.04,0.03,0.43,-0.02,0.82,
53140.3,49.46183680374193,4.520354038799702,2.1383681576773137,0.06,-0.03,0.06,0.44,-0.00,0.83,
53140.4,48.86925925364533,4.481080439368418,2.105426394016792,0.04,0.06,0.05,0.41,-0.00,0.82,
53140.5,49.73318107662127,4.460783736162098,2.11855961832854,0.06,0.10,0.03,0.43,0.01,0.83,
53140.6,50.26246412582654,4.487977935925282,2.126839109488259,0.11,0.33,-0.03,0.40,0.05,0.85,
53140.7,48.12249577900132,4.5064896585866965,2.1105175598901074,0.03,0.10,-0.06,0.39,0.05,0.83,
53140.8,49.83423522037837,4.534845666292604,2.1016601470859486,0.01,0.09,-0.09,0.41,0.02,0.87,
53140.9,48.311109488398216,4.561576096034425,2.112281652665027,-0.02,-0.01,-0.02,0.41,0.00,0.84,
53141.0,47.08890315137952,4.550788675174308,2.094776418364912,0.04,0.38,0.02,0.40,-0.00,0.85,
53141.1,47.77522893718041,4.555949099189366,2.0797706189809215,0.07,0.37,0.03,0.31,0.05,0.86,
53141.2,47.22681547595602,4.598071138180266,2.088941319244069,0.04,0.28,0.00,0.29,0.05,0.89,
53141.3,48.30468507298231,4.587288496189242,2.1041676850877953,0.04,0.43,-0.01,0.29,0.03,0.86,
53141.4,47.57486416165579,4.607436234306342,2.0847755008688096,0.03,0.44,0.02,0.24,0.03,0.85,
53141.5,48.57585717205616,4.6425709296097555,2.0731787172737834,0.03,0.40,-0.07,0.16,0.04,0.85,
53141.6,47.464046393033115,4.670204662356965,2.0776398877936257,-0.06,-0.01,-0.19,0.16,0.05,0.84,
53141.7,48.34312464042844,4.698857042871821,2.083642471624464,0.01,-0.11,-0.13,0.21,0.04,0.89,
53141.8,47.028916636469525,4.710935140846841,2.070872320086975,0.11,0.06,-0.03,0.19,0.07,0.91,
53141.9,46.996277512160475,4.706854869413265,2.056516644724418,0.06,0.03,-0.08,0.16,0.08,0.90,
53142.0,48.168705608517236,4.698968547630599,2.061986331838646,-0.01,-0.01,-0.20,0.17,0.11,0.93,
53142.1,47.27905350152433,4.748173793882247,2.0638973209271874,-0.13,0.11,-0.31,0.17,0.06,0.93,
53142.2,48.295118800972006,4.759399236674496,2.072356266554477,-0.11,0.19,-0.21,0.15,0.02,0.91,
53142.3,47.7687146571896,4.792963972979351,2.0784088592802474,-0.01,0.23,-0.07,0.10,0.05,0.91,
53142.4,47.712592677405404,4.824502788990202,2.0445993700560106,0.07,0.30,-0.08,0.04,0.09,0.95,
53142.5,46.550885061403505,4.837013937130184,2.047983458918968,0.05,0.32,-0.20,0.01,0.12,0.96,
53142.6,46.009635947266524,4.85219892678659,2.025566449128103,0.01,0.28,-0.40,-0.04,0.10,0.91,
53142.7,47.06018911989199,4.940288822383876,1.9950059134499374,0.15,0.35,-0.38,0.03,0.06,0.91,
53142.8,47.48841542944974,4.941396701770254,1.9870196719585764,0.08,0.46,-0.32,-0.02,0.09,0.90,
53142.9,46.10608745057424,4.996693500997033,1.978944952662814,0.01,0.40,-0.24,-0.07,0.12,0.89,
53143.0,47.20730981532415,5.008614694765607,1.9423669963573136,-0.09,0.22,-0.32,-0.13,0.13,0.90,
53143.1,46.49396304898089,5.043863701523585,1.9650680530754285,0.05,0.21,-0.27,-0.15,0.07,0.91,
53143.2,45.93700142586583,5.0779098679514885,1.9302748436413788,0.19,0.25,-0.33,-0.18,0.08,0.86,
53143.3,42.94657262227103,5.108334265923284,1.8989131325290405,0.07,-0.08,-0.25,-0.18,0.07,0.93,
53143.4,44.20598262678933,5.165306019536627,1.881142750265866,0.11,0.36,-0.27,-0.25,0.05,0.89,
53143.5,44.43548694455817,5.1704787607062705,1.8554828490266535,0.07,0.06,-0.17,-0.28,0.08,0.90,
53143.6,43.73020352113628,5.175290241299319,1.8575822183294042,-0.03,-0.90,0.20,-0.14,0.05,0.89,
53143.7,44.08477514970446,5.151131082184036,1.8344753732513281,-0.00,-0.20,0.29,-0.06,0.12,0.89,
53143.8,45.462717692632495,5.094545171982246,1.8340393467104377,-0.03,0.10,0.41,-0.09,0.18,0.89,
53143.9,45.2609732551124,5.083256590189981,1.8313515611224087,-0.04,-1.37,0.31,-0.20,0.19,0.76,
53144.0,45.96128044343412,5.002968131454021,1.8012848606736762,-0.05,-1.19,0.18,0.12,0.16,0.95,
53144.1,44.96641858098107,4.954607964017712,1.7845793611948217,0.02,-0.48,0.13,0.15,0.13,0.91,
53144.2,46.216544656648665,4.937304528720185,1.8033230296692278,0.12,-0.28,0.19,0.22,0.11,0.90,
53144.3,46.00142280408293,4.932734169899392,1.7462550317106285,0.06,-0.33,0.18,0.15,0.16,0.87,
53144.4,46.371097679481345,4.869424172428072,1.754484445040354,-0.03,-1.09,0.14,0.29,0.13,0.84,
53144.5,46.88956813620702,4.87590494823996,1.7271171456319305,-0.01,-1.05,0.16,0.45,0.14,0.89,
53144.6,48.240785648660406,4.819438965465009,1.7519230998290392,0.13,-0.21,0.06,0.49,0.12,0.84,
53144.7,47.25661964211998,4.811431904739331,1.7909525758421925,0.07,0.36,0.11,0.44,0.14,0.78,
53144.8,47.41193415164582,4.836131605136594,1.7577008202550817,0.05,0.19,0.11,0.37,0.12,0.78,
53144.9,46.73075004747944,4.80034526475551,1.7622016702215868,-0.01,0.23,0.03,0.38,0.16,0.85,
53145.0,47.69149819412261,4.793217476606671,1.811090039443766,-0.04,0.26,-0.03,0.41,0.15,0.85,
53145.1,46.68105718597213,4.797155573809128,1.7987675837479127,-0.03,0.40,-0.04,0.38,0.16,0.88,
53145.2,46.57082133697021,4.779355098360031,1.820091526756756,-0.14,0.23,-0.02,0.34,0.13,0.91,
53145.3,47.00292118581567,4.787432398027977,1.877030988603409,-0.20,0.68,0.03,0.27,0.12,0.92,
53145.4,45.33525559650017,4.787301634460334,1.927017583313815,-0.21,0.70,0.06,0.17,0.07,0.89,
53145.5,46.242551832700585,4.7853037839726245,1.9729644349115403,-0.22,0.58,0.12,0.15,0.05,0.91,
53145.6,45.390609160926665,4.811017352617265,2.0075443472225496,-0.18,0.88,0.14,0.08,0.05,0.93,
53145.7,46.871775089066126,4.816431553552936,2.0586438300414542,-0.24,0.90,0.10,-0.01,0.03,0.90,
53145.8,45.66395734055471,4.899018648402289,2.0622701835434967,-0.28,0.87,0.09,-0.14,0.01,0.90,
53145.9,46.249571889910506,4.930075045094263,2.1083133513009713,-0.32,0.92,0.07,-0.18,-0.02,0.91,
53146.0,45.376546805591104,4.925211511948771,2.1169816504905006,-0.27,0.81,0.20,-0.29,-0.08,0.85,
53146.1,47.18166699047416,4.988387225373291,2.1059158183403066,-0.23,0.68,0.14,-0.38,-0.06,0.80,
53146.2,46.64169057827986,5.04237210396374,2.128888882545354,-0.24,0.46,0.09,-0.43,-0.07,0.77,
53146.3,47.48615166551191,5.04170628325827,2.1185646973695316,-0.13,0.23,0.15,-0.44,-0.11,0.81,
53146.4,45.691209220155244,5.08010995298951,2.157354951027486,-0.10,0.29,0.07,-0.53,-0.12,0.77,
53146.5,46.796452857027525,5.083358479739974,2.127832261433702,-0.04,0.05,0.05,-0.50,-0.12,0.75,
53146.6,46.439598404809665,5.127436093366993,2.1323709876065613,-0.04,-0.16,0.04,-0.51,-0.10,0.76,
53146.7,46.73396516453531,5.065304116117225,2.1395477498647697,-0.04,-0.24,-0.15,-0.53,-0.10,0.72,
53146.8,47.10136834530393,5.095098313561758,2.1745198941470494,0.03,-0.98,-0.28,-0.43,-0.10,0.71,
53146.9,47.34376516501407,5.007182213206452,2.2136043063705175,0.26,-1.88,-0.56,-0.27,-0.13,0.80,
53147.0,46.385845901524746,4.916362716496544,2.175468468310422,0.42,-1.87,-0.60,-0.04,-0.11,0.89,
53147.1,46.04920086168706,4.804969434281544,2.163936236669313,0.39,-1.70,-0.60,0.12,-0.03,0.88,
53147.2,45.393273730807294,4.79535761621435,2.1294375469772087,0.43,-1.23,-0.49,0.34,-0.05,0.93,
53147.3,45.238052566395915,4.797360594609739,2.0811968665688365,0.38,-0.90,-0.40,0.40,0.03,0.86,
53147.4,46.193680303695224,4.799637366960952,1.9755330935740074,0.22,-1.12,-0.15,0.53,0.13,0.90,
53147.5,46.74186346306702,4.805267262138427,1.9354648247563857,0.06,-0.09,-0.10,0.51,0.13,0.78,
53147.6,46.33097128271757,4.836857617751576,1.912152440484469,-0.01,-0.14,0.01,0.50,0.14,0.80,
53147.7,47.557831111185045,4.858683598881381,1.8770907740364227,0.00,-0.17,-0.01,0.53,0.08,0.76,
53147.8,46.90779466144193,4.89045509937756,1.9225084690772236,0.01,-0.23,-0.04,0.49,0.07,0.76,
53147.9,45.34929657668352,4.913766059327549,1.8691433056697355,-0.06,-0.88,0.04,0.63,0.06,0.86,
53148.0,46.64873953281053,4.901413384404494,1.8909288130789363,-0.12,0.07,-0.09,0.58,0.10,0.71,
53148.1,44.95213676790014,4.909601339723658,1.8800246867798267,-0.10,-0.04,-0.14,0.65,0.15,0.74,
53148.2,44.46252579420113,4.926828076031454,1.9352939561748634,-0.15,0.26,-0.22,0.58,0.11,0.75,
53148.3,44.81968875393938,4.926879313859672,1.9562190130344208,0.03,0.46,-0.30,0.53,0.11,0.70,
53148.4,42.55132547876741,4.940340078658394,1.9805053691648706,-0.13,0.18,-0.19,0.51,0.12,0.73,
53148.5,42.541473881378394,4.975866863311207,1.9696116732911746,-0.21,0.35,-0.17,0.51,0.13,0.73,
53148.6,42.03105875421175,4.967966115247115,2.049748697624265,-0.23,0.09,-0.17,0.47,0.08,0.83,
53148.7,41.87494955220841,4.980438942017642,2.078816430110246,-0.28,0.10,-0.02,0.39,0.04,0.84,
53148.8,42.70304672971238,5.015153899481645,2.188439757073525,-0.57,0.06,0.17,0.38,-0.00,0.77,
53148.9,42.79794037100384,5.0094473996206865,2.2355332783820656,-0.48,0.07,0.26,0.37,-0.04,0.81,
53149.0,42.339155636361006,4.981676522389994,2.2392297153884853,-0.05,-0.21,0.21,0.36,-0.06,0.80,
53149.1,41.837774797424395,4.963180197552971,2.281386661304736,0.10,-0.30,0.14,0.42,-0.07,0.74,
53149.2,43.18146940529004,4.9047029793827726,2.278747874609521,0.16,-0.21,0.33,0.50,-0.09,0.72,
53149.3,44.01481227950427,4.845480783595466,2.3341634791691757,0.23,-0.30,0.53,0.48,-0.09,0.78,
53149.4,44.75448580868738,4.766805305951855,2.2845594748721822,0.20,-0.10,0.57,0.48,-0.07,0.77,
53149.5,46.02468142203702,4.7006524301025205,2.3077439970113067,0.16,-0.20,0.51,0.46,-0.09,0.77,
53149.6,46.11932133065273,4.608608532443092,2.2850318775109013,0.24,-0.31,0.45,0.51,-0.16,0.71,
53149.7,46.520303094455436,4.5684199165482235,2.250750932866332,0.15,-0.50,0.44,0.53,-0.11,0.68,
53149.8,47.09222547300138,4.4614741031005565,2.2455840426810516,0.37,-0.24,0.49,0.55,-0.07,0.71,
53149.9,47.367800244469876,4.422687758050525,2.2037651960621982,0.70,-0.26,0.27,0.53,-0.03,0.71,
53150.0,47.970337709880674,4.410838492287312,2.1465929644301704,0.97,0.82,0.07,0.54,0.06,0.73,
53150.1,49.08002750610476,4.47423435831122,2.1307810994864713,0.77,1.24,-0.20,0.48,0.17,0.80,
53150.2,50.184702848577274,4.569781010111498,2.082188927215587,0.04,0.54,-0.14,0.44,0.14,0.86,
53150.3,51.77480758052124,4.639849086152077,2.0613093973847576,0.40,0.40,-0.17,0.27,0.11,0.82,
53150.4,50.54382454860337,4.638737336793592,2.0443366565384746,-0.04,-0.19,-0.02,0.32,0.09,0.84,
53150.5,50.17199418002039,4.638277473711286,2.030045481361449,-0.06,-0.29,0.04,0.32,0.13,0.87,
53150.6,50.917915314749486,4.642770383240489,2.0518409631040404,-0.11,-0.18,0.06,0.33,0.11,0.83,
53150.7,50.53206605710873,4.645776091889543,2.059413031719854,-0.01,-0.06,0.05,0.37,0.11,0.83,
53150.8,51.46096093156442,4.624567907943049,2.05247081943628,-0.03,-0.04,0.05,0.41,0.10,0.84,
53150.9,50.27277294918194,4.59346990857418,2.0248445784275466,0.03,-0.06,0.06,0.37,0.10,0.85,
53151.0,50.21687963225114,4.602840542789924,2.0387305696168507,0.09,0.00,0.06,0.39,0.11,0.79,
53151.1,49.952230180443394,4.580575989481928,2.0317751645751114,0.03,-0.10,0.04,0.41,0.11,0.82,
53151.2,50.734522763104806,4.552755151721296,2.024131302512732,0.02,-0.05,0.05,0.43,0.12,0.82,
53151.3,50.050944047040716,4.59781098429259,2.0336965894576977,0.04,0.02,0.02,0.39,0.12,0.81,
53151.4,50.11251939386005,4.611812062929841,2.0301871532218962,0.04,0.10,0.01,0.40,0.12,0.80,
53151.5,51.30139374325029,4.573013135541183,2.029596810276831,0.06,0.13,0.03,0.41,0.13,0.81,
53151.6,49.87051734241385,4.615211758428373,2.0287850517280095,0.02,-0.02,0.03,0.38,0.13,0.81,
53151.7,50.84626731629373,4.601804590654427,2.0340230753472754,0.01,-0.02,0.02,0.41,0.13,0.81,
53151.8,51.17445554180327,4.584675589006966,2.0169127026191065,0.01,-0.02,0.02,0.40,0.13,0.80,
53151.9,52.17958700488152,4.5937674722379604,2.0319723806043237,0.14,0.24,0.09,0.35,0.14,1.07,
53152.0,51.96297624270573,4.579131672133834,2.0196830586032264,-0.02,-0.11,0.05,0.46,0.13,0.85,
53152.1,50.74221122497521,4.583213571460386,2.0157442605924016,0.06,0.16,-0.08,0.35,0.14,0.82,
53152.2,50.44924776446126,4.5913086364332685,2.0196148963547413,0.02,0.01,-0.04,0.45,0.14,0.88,
53152.3,51.09453786854325,4.637663223350598,1.9990783221668218,0.10,0.67,-0.00,0.37,0.14,0.82,
53152.4,50.059051129640885,4.650495678216061,2.0193778181223423,0.21,1.33,-0.20,0.27,0.14,0.89,
53152.5,52.27221632951869,4.696899325445073,1.9886070662233684,0.18,0.99,-0.24,0.09,0.18,0.84,
53152.6,52.264259298300594,4.790790419370151,1.9771894706513555,0.12,0.46,-0.41,0.19,0.22,0.90,
53152.7,51.91489670605153,4.841237856996381,1.987447937386389,-0.01,0.67,-0.50,-0.04,0.16,0.87,
53152.8,50.70285396306602,4.876169333623471,1.9627880007615848,-0.02,0.36,-0.23,-0.03,0.22,0.89,
53152.9,51.86599753210189,4.930061166060453,1.9654107353266363,-0.07,0.02,-0.26,-0.05,0.21,0.92,
53153.0,52.403405423693606,4.974605597092124,1.9498205473300732,-0.08,-0.46,-0.08,0.11,-0.13,0.94,
53153.1,52.2850925216739,4.956767313402073,1.954637976260648,-0.03,0.37,0.14,-0.05,0.23,0.94,
53153.2,51.12394057582025,4.950572326076307,1.9511561893213887,-0.11,0.73,0.07,-0.21,0.17,1.00,
53153.3,51.88034020705724,4.968859659914223,1.942849439985704,0.01,0.55,0.06,-0.08,0.28,0.91,
53153.4,52.93860122821531,5.008217990060051,1.94417370727749,-0.04,0.21,0.13,-0.24,0.18,0.90,
53153.5,52.52231144951639,4.98671574327614,1.934007336225784,0.11,0.81,0.47,-0.22,0.17,0.83,
53153.6,53.209257653156556,4.98846355172333,1.9196894252463832,0.03,-0.69,0.12,-0.25,0.17,0.84,
53153.7,52.35214417767433,4.964016679649849,1.9370836523463808,-0.09,-0.76,0.04,-0.14,0.29,0.90,
53153.8,52.178227260036344,4.958607476242665,1.9268870170430892,0.03,-0.05,-0.09,0.07,0.28,0.91,
53153.9,52.41041594950378,4.9307661586037455,1.9681135952352904,-0.10,0.76,-0.40,-0.23,0.14,0.88,
53154.0,53.04886332429753,4.986489437174605,1.9441692645529625,-0.11,0.65,-0.20,-0.21,0.13,0.86,
53154.1,52.308116005071334,5.0241587845965725,1.9559037797761751,0.03,0.31,0.06,-0.23,0.20,0.88,
53154.2,51.89901925855632,5.048243154445537,1.9135025564958246,0.03,0.35,0.23,-0.32,0.19,0.87,
53154.3,50.82012495065316,5.040580034582968,1.898344938334661,0.16,-0.39,0.50,-0.46,0.16,0.81,
53154.4,53.489641053198326,4.974457534577813,1.9052867354215874,-0.11,-1.25,0.18,-0.16,0.27,0.80,
53154.5,51.774199172947135,4.9137604179608045,1.9628029281036448,-0.17,-0.40,-0.15,-0.04,0.18,0.92,
53154.6,51.92424289289156,4.907708418649991,1.9530834575709453,-0.01,0.13,0.15,-0.09,0.24,0.89,
53154.7,52.606275291071505,4.909100077644675,1.9581198861840123,-0.05,-0.16,0.05,-0.13,0.23,0.91,
53154.8,51.7240533987815,4.880972771902785,1.9598582582966833,0.01,0.06,0.08,-0.12,0.26,0.93,
53154.9,52.131480892067515,4.916663228152816,1.932752841677726,0.20,0.10,0.10,-0.15,0.26,0.91,
53155.0,51.45869994471294,4.876486454388623,1.912635359412787,0.29,0.36,0.09,-0.08,0.26,0.90,
53155.1,51.63316279291828,4.9007346511536305,1.892999318049726,0.27,0.57,-0.09,-0.22,0.32,0.91,
53155.2,50.57553064476932,4.92974981002807,1.8272791329176032,0.11,-0.02,-0.30,-0.25,0.34,0.92,
53155.3,49.896253366360085,4.969807819704154,1.835624151630856,0.11,0.50,-0.71,-0.28,0.32,0.90,
53155.4,49.28069500321602,5.039088356142479,1.8059076629823372,0.20,0.71,-1.08,-0.41,0.26,0.86,
53155.5,50.15686892141495,5.108922176574419,1.7847589575542775,0.25,0.46,-1.08,-0.40,0.24,0.78,
53155.6,48.78871385884239,5.191797917402564,1.721192386977953,0.15,0.31,-1.21,-0.43,0.22,0.74,
53155.7,48.17644030021313,5.300911935411657,1.6632969824713888,0.14,0.53,-1.08,-0.54,0.16,0.72,
53155.8,47.43305387596291,5.352808499878053,1.6188826025220657,0.15,0.46,-0.60,-0.55,0.11,0.72,
53155.9,47.71564732873274,5.421083459132843,1.552143082763975,0.17,0.76,-0.23,-0.58,0.12,0.63,
53156.0,47.991211695476075,5.4080348426863685,1.5378676819142356,-0.07,0.19,-0.16,-0.64,0.11,0.63,
53156.1,47.95875415396026,5.441977586371543,1.5292904218677104,-0.20,-0.07,-0.03,-0.64,0.07,0.65,
53156.2,47.1424150845075,5.437286890921579,1.5478850166527556,-0.18,-0.02,0.30,-0.62,0.08,0.69,
53156.3,46.69599875792357,5.435349439480927,1.5538775819118886,-0.30,-0.07,0.46,-0.66,0.10,0.67,
53156.4,46.56303791635593,5.361130816145586,1.5570510863253697,-0.18,0.07,0.12,-0.73,0.12,0.64,
53156.5,46.67188447020326,5.374146246907809,1.5729389460109153,-0.05,-0.24,-0.11,-0.70,0.10,0.66,
53156.6,45.284126357919284,5.362604065770023,1.5557794629899786,-0.00,-0.09,-0.26,-0.66,0.04,0.71,
53156.7,45.13324052181496,5.382527401208905,1.5588314672328634,-0.05,-0.13,0.07,-0.62,0.05,0.77,
53156.8,44.49224314417065,5.3351206288553605,1.5654021019379314,-0.16,-0.70,0.43,-0.58,0.09,0.78,
53156.9,46.59058917850256,5.313250314353672,1.5740158666586563,-0.21,0.33,0.16,-0.62,0.11,0.72,
53157.0,46.6569276742479,5.2845765153959645,1.5873005201913943,0.02,-1.08,0.47,-0.52,0.08,0.78,
53157.1,47.25916313266666,5.213526119717945,1.5904763205335837,0.02,-0.65,0.25,-0.52,0.12,0.80,
53157.2,48.63663434079295,5.186062007721411,1.5940319330749266,0.06,-1.52,0.35,-0.43,0.19,0.83,
53157.3,48.62223462573476,5.120880696984071,1.6383064453135052,0.05,-0.96,0.20,-0.25,0.22,0.90,
53157.4,49.1006782030554,5.102506428038264,1.6650281087835737,0.01,-0.71,0.25,-0.14,0.16,0.90,
53157.5,49.476210445020946,5.072564813110452,1.6868700320626424,0.04,-0.78,0.16,-0.11,0.16,0.87,
53157.6,48.80310850755308,5.02280599192809,1.6726049805108467,0.01,-1.03,0.14,-0.06,0.18,0.90,
53157.7,50.37876636044197,5.0359792840220505,1.7162105741759983,-0.01,-1.00,0.29,0.12,0.24,0.96,
53157.8,49.80066063818832,4.9720463044866365,1.7417052146188328,-0.19,0.85,0.16,0.23,0.23,0.97,
53157.9,49.5750118507298,4.978117969864326,1.7667015445892904,-0.46,0.63,0.09,0.07,0.19,1.02,
53158.0,47.68985426691929,4.977707394153441,1.8353527950670898,-0.64,1.50,0.08,-0.14,0.07,0.91,
53158.1,46.62413430831719,5.056109224095464,1.940566139038608,-0.38,0.69,0.16,-0.25,-0.00,0.85,
53158.2,47.12497745357551,5.056109224095464,1.9670823655692071,-0.36,0.85,0.15,-0.27,-0.03,0.84,
53158.3,45.73300886668184,5.07416022509684,1.9705762072793822,-0.33,0.48,0.11,-0.40,-0.07,0.84,
53158.4,46.67855717564544,5.092719502403466,2.0105065301195255,-0.22,0.60,0.11,-0.41,-0.07,0.85,
53158.5,47.30031289537099,5.124933993371387,2.02281636165878,-0.15,0.66,0.09,-0.48,-0.06,0.81,
53158.6,46.696162583235896,5.172437959703905,2.010565833427314,-0.21,0.46,0.03,-0.54,-0.07,0.72,
53158.7,47.034955086616165,5.232298744730955,2.0267411635903203,-0.27,0.13,-0.04,-0.55,-0.09,0.69,
53158.8,46.289714840340075,5.238770125893803,2.021889895285873,-0.25,0.29,-0.11,-0.58,-0.14,0.61,
53158.9,45.503189998064975,5.236049805041246,2.022693085630348,0.29,-0.68,-0.10,-0.56,-0.12,0.61,
53159.0,47.008898093871544,5.196376396429013,2.0470172329045546,0.56,-1.04,-0.25,-0.50,-0.12,0.74,
53159.1,47.15871711571467,5.181591494325649,2.049197320596585,0.72,-1.42,-0.39,-0.34,-0.07,0.82,
53159.2,44.95214121707664,5.113817212721145,2.0162892234526066,0.60,-1.30,-0.41,-0.17,0.02,0.95,
53159.3,46.50120536072157,5.0534398463203285,2.0004416004702907,0.50,-0.88,-0.33,-0.05,0.07,0.98,
53159.4,47.827796311350156,5.06785057850931,1.9422483865658347,0.32,-0.69,-0.19,0.02,0.11,0.98,
53159.5,47.71606542874213,5.045795665289033,1.9243295048070734,0.11,-0.67,-0.05,0.05,0.11,0.99,
53159.6,48.81076110859162,5.057181957878851,1.8870381935332365,0.12,-0.26,0.01,0.12,0.13,0.93,
53159.7,47.41966891491336,5.045865927316974,1.8704989929994646,0.16,-0.21,-0.02,0.10,0.16,0.92,
53159.8,48.106159688755035,5.012723065101029,1.862617674610583,0.04,-0.33,-0.05,0.13,0.14,0.91,
53159.9,49.63805294328132,5.058747508082714,1.8430957956429248,-0.02,-0.31,0.01,0.19,0.14,0.92,
53160.0,48.90389043828722,5.047622316040554,1.8398585543708639,-0.05,0.09,-0.06,0.16,0.14,0.90,
53160.1,46.87644397775923,5.043327745028872,1.8480323230022127,-0.04,0.55,-0.12,0.19,0.21,0.92,
53160.2,46.8359530702643,5.086341297648507,1.8248222066038098,-0.02,0.46,-0.25,0.04,0.18,0.93,
53160.3,48.23113309886053,5.103639471938637,1.840048628458771,0.12,0.62,-0.30,0.06,0.18,0.88,
53160.4,45.4813115466122,5.173194246009519,1.8218798955559794,0.14,0.03,-0.38,0.01,0.18,0.90,
53160.5,45.876876528377565,5.216124490531432,1.842904717727354,0.13,0.01,-0.58,-0.04,0.16,0.89,
53160.6,44.43955332808826,5.250456116402487,1.8834753394837995,0.03,-0.56,-0.43,-0.01,0.14,0.85,
53160.7,43.83331381495129,5.256177992425826,1.9173899520290318,-0.03,-0.08,-0.20,0.06,0.14,0.89,
53160.8,44.427645672486406,5.280215402384869,1.9517872747346292,-0.20,0.02,0.04,0.04,0.12,0.90,
53160.9,44.702259450725755,5.266637118837156,1.9847331864302364,-0.26,-0.10,0.18,0.04,0.09,0.91,
53161.0,44.04638123614697,5.265052060406808,2.0218389688411262,-0.36,-0.33,0.33,0.06,0.02,0.88,
53161.1,45.663287222888364,5.269385775098211,2.058060059869218,-0.39,-0.73,0.56,0.15,0.01,0.90,
53161.2,45.477248157732674,5.205807421678243,2.169773987635015,-0.16,0.10,0.65,0.16,0.01,0.89,
53161.3,45.72497129578104,5.134629879774499,2.1334191489274437,0.06,0.30,0.86,0.14,-0.03,0.78,
53161.4,46.98843049091978,5.062772288386714,2.1543424620936453,-0.03,-0.68,0.73,0.19,-0.05,0.67,
53161.5,47.65680329187009,4.886046627733879,2.2097391798440142,0.51,-1.05,0.89,0.41,0.06,0.81,
53161.6,47.98652831785188,4.8191156890868205,2.170411778390983,1.00,0.42,0.43,0.29,0.21,1.02,
53161.7,48.91176852251409,4.795432641778758,2.0862485946931457,0.64,0.66,0.31,0.10,0.27,1.00,
53161.8,50.12547555884134,4.800541483175408,2.052891421440175,0.36,-0.27,0.54,0.20,0.21,1.02,
53161.9,50.86887260398052,4.740822479120175,2.0082543643447615,0.55,0.60,0.25,0.11,0.30,0.88,
53162.0,51.72442169807218,4.765060235138385,1.9690665591389156,0.40,0.72,0.25,0.08,0.25,0.78,
53162.1,52.372126174139616,4.77376884287924,1.9187992213435574,-0.20,-0.88,-0.04,0.19,0.27,0.95,
53162.2,51.35369314859449,4.78362098713988,1.9752811532745573,-0.21,0.01,-0.36,0.21,0.19,0.92,
53162.3,51.011885869863704,4.759544045123578,1.9862788205662252,-0.08,-0.02,0.04,0.16,0.20,0.88,
53162.4,51.83015820928969,4.7797856909242515,1.9888048663899582,-0.04,-0.11,0.02,0.22,0.18,0.88,
53162.5,51.86188002762723,4.747601930050708,1.9731847557010929,0.02,-0.06,0.03,0.22,0.20,0.87,
53162.6,51.92203963636251,4.729570149167889,2.003026876898856,0.01,-0.01,0.08,0.25,0.20,0.85,
53162.7,52.359806149373775,4.728866420979456,1.984316142462384,0.12,-0.01,0.06,0.26,0.20,0.90,
53162.8,51.806395358102264,4.734377400442139,1.9909105013384232,0.06,-0.02,0.05,0.24,0.22,0.87,
53162.9,51.17937475194475,4.751158972296384,1.979932019694573,0.06,-0.07,0.06,0.24,0.21,0.83,
53163.0,51.612623455894976,4.718250332561454,1.9590682692252683,0.09,-0.21,-0.03,0.22,0.23,0.84,
53163.1,51.51051154861501,4.730123607356715,1.9746115020338406,0.01,-0.35,-0.05,0.25,0.23,0.83,
53163.2,51.78358813369348,4.72275345169814,1.9427493639959559,0.03,-0.09,0.06,0.30,0.22,0.82,
53163.3,51.87610721709948,4.718682163509803,1.9762124874294995,-0.02,-0.09,0.06,0.30,0.23,0.83,
53163.4,52.1867655636944,4.731509493412508,1.9682495178422117,-0.02,-0.10,0.05,0.33,0.22,0.84,
53163.5,52.25639482398302,4.697119841102645,1.9540343178868433,-0.01,-0.09,0.06,0.31,0.22,0.83,
53163.6,50.53917589355806,4.702374399359593,1.9508812380753944,0.01,-0.05,0.05,0.30,0.22,0.84,
53163.7,50.99478208601347,4.6892459480691695,1.9640291151187526,0.09,-0.15,0.09,0.34,0.24,0.85,
53163.8,51.321646505154135,4.668164478776609,1.9473105564757776,0.14,-0.22,0.09,0.33,0.22,0.84,
53163.9,51.09896574295804,4.656647411148482,1.9251387916289266,0.08,-0.05,0.10,0.31,0.22,0.79,
53164.0,49.43461236825874,4.663110284195568,1.9296177411289943,0.16,-0.04,0.14,0.34,0.27,0.80,
53164.1,50.46006440741034,4.61514598496543,1.9100022614827106,0.23,0.03,0.33,0.37,0.32,0.85,
53164.2,49.85757715733889,4.604870069203725,1.9017293179504697,0.20,0.04,0.27,0.34,0.34,0.85,
53164.3,50.58908380273357,4.594881612900001,1.8685190922126746,0.04,-0.36,0.02,0.33,0.34,0.86,
53164.4,49.00725864604141,4.599347917788243,1.8392769798061035,0.00,0.48,-0.16,0.42,0.25,0.83,
53164.5,49.13228266628776,4.622300021451375,1.8234120348774463,0.17,0.31,0.09,0.42,0.23,0.81,
53164.6,47.32858227329444,4.633018047951021,1.8051418074103889,0.11,0.37,0.08,0.37,0.22,0.72,
53164.7,47.82640693173594,4.644819586860757,1.8063114233456832,-0.11,0.40,-0.10,0.35,0.20,0.74,
53164.8,49.204365659969646,4.646628233533946,1.8117169015463852,-0.18,0.29,-0.16,0.26,0.24,0.81,
53164.9,48.56547230286142,4.6892459480691695,1.8168606166999004,-0.24,0.41,-0.29,0.25,0.33,0.90,
53165.0,48.787359018499856,4.727693907708882,1.8388163769793946,-0.23,0.40,-0.32,0.18,0.35,0.96,
53165.1,46.75681554597148,4.767850733985787,1.822831560786441,-0.16,0.82,-0.48,0.11,0.29,0.92,
53165.2,47.102258969183204,4.836960272986802,1.7995262589502492,-0.10,0.46,-0.47,0.11,0.24,0.88,
53165.3,46.16714307816762,4.858135082108872,1.8124903056556174,-0.05,0.67,-0.59,0.04,0.16,0.81,
53165.4,46.679798628528815,4.955887259692918,1.756960557073228,-0.11,0.66,-0.60,-0.04,0.19,0.84,
53165.5,46.25700055126791,4.982957772307465,1.7736680793176032,-0.10,0.48,-0.55,-0.15,0.14,0.85,
53165.6,45.459153093739,5.014525875772755,1.7582126775809164,-0.08,0.97,-0.53,-0.16,0.12,0.80,
53165.7,46.41418425438499,5.102256855424226,1.7556269316246185,0.01,0.08,-0.43,-0.24,0.15,0.88,
53165.8,45.012394959610845,5.1137815816157834,1.7515065458826822,0.00,0.58,-0.40,-0.31,0.09,0.87,
53165.9,45.463076226757906,5.171174551889063,1.702270158255824,0.13,-0.00,-0.18,-0.40,0.04,0.82,
53166.0,46.579907685610536,5.1400571678893225,1.710798377817673,-0.01,-0.33,0.15,-0.25,0.15,0.86,
53166.1,46.45543886349584,5.118246565710468,1.6704111353719762,0.08,-0.29,0.15,-0.27,0.16,0.87,
53166.2,47.71704726824576,5.12476330090424,1.6528296679210401,0.14,-0.30,0.47,-0.20,0.24,0.89,
53166.3,49.7533285318681,5.033566541910953,1.6287142766100489,0.15,-1.04,0.33,-0.26,0.22,0.77,
53166.4,49.44278511572745,5.040439271446603,1.6712833283435462,-0.05,-1.31,0.12,-0.03,0.29,0.92,
53166.5,50.47836071030834,4.970916819152785,1.654494193653638,-0.13,-0.28,0.04,0.05,0.24,0.90,
53166.6,50.29527214361207,4.972476915957641,1.6623842069960861,-0.00,-1.06,0.24,0.11,0.18,0.93,
53166.7,52.57989159365013,4.949616220596608,1.6822864175837873,0.08,-0.47,-0.01,0.06,0.23,0.83,
53166.8,52.18305088819549,4.920839670638226,1.6918204022601473,0.20,-1.20,0.39,0.31,0.24,0.90,
53166.9,52.44149978785885,4.866530321013185,1.7041007863039612,-0.05,0.32,0.19,0.42,0.27,0.96,
53167.0,50.81751174546035,4.8997809661623215,1.7282822084242195,-0.30,0.31,-0.06,0.26,0.26,0.90,
53167.1,50.55406412940506,4.862876049805543,1.8004877340618979,-0.47,0.59,0.05,0.32,0.21,0.95,
53167.2,48.76088391323521,4.890089150689364,1.9023006325151721,-0.53,0.89,-0.02,0.08,0.13,0.94,
53167.3,47.41677867590754,4.898439226774508,1.9674794131817699,-0.49,1.52,-0.06,-0.01,0.07,0.93,
53167.4,46.825623327404834,4.946732788017372,2.0080863931738384,-0.50,1.13,-0.05,-0.17,0.02,0.92,
53167.5,47.36962001114216,5.036458674784554,2.039067375866841,-0.54,1.19,-0.06,-0.27,-0.05,0.94,
53167.6,45.195139119157496,5.128287495009301,2.0678310843265084,-0.59,1.45,-0.02,-0.37,-0.10,0.81,
53167.7,46.87308929439151,5.197635487964923,2.0675863956759457,-0.65,1.14,0.10,-0.49,-0.13,0.68,
53167.8,47.83302415695667,5.280215402384869,2.1019794530185356,-0.50,1.12,0.09,-0.64,-0.17,0.62,
53167.9,47.090857923805125,5.306725206438281,2.038254094057767,-0.16,0.63,0.07,-0.69,-0.18,0.49,
53168.0,46.646268875441685,5.351714950801026,2.059024906014896,-0.01,-0.17,0.02,-0.68,-0.18,0.50,
53168.1,46.286899874586545,5.324703937140916,2.0658517527071147,0.11,-0.43,-0.08,-0.64,-0.17,0.58,
53168.2,46.76980756855858,5.312278705904657,2.090328552741822,0.26,-1.28,-0.25,-0.57,-0.18,0.62,
53168.3,47.21440775864926,5.2881108977390445,2.113647766359372,0.50,-1.44,-0.37,-0.42,-0.15,0.74,
53168.4,47.02953540063945,5.238717732483254,2.107834553628397,0.77,-1.47,-0.38,-0.31,-0.12,0.83,
53168.5,45.91031801240327,5.136421126059364,2.089995213841857,1.02,-1.28,-0.22,-0.14,-0.06,0.99,
53168.6,47.62301334439054,5.043038321723351,2.0151054704360325,0.84,-0.99,0.00,-0.04,0.09,0.98,
53168.7,48.10676563644661,4.975854109971065,1.9319787872384413,0.58,-1.43,0.09,0.08,0.17,0.97,
53168.8,48.307302760555785,4.960389423000926,1.8976548540119638,0.20,-1.22,-0.01,0.25,0.23,1.03,
53168.9,46.99746056969462,4.91508662454916,1.8808637749576866,0.03,-0.51,-0.04,0.30,0.20,0.95,
53169.0,48.42938570744006,4.937118174503985,1.8644941281567213,0.01,-0.33,-0.05,0.29,0.19,0.87,
53169.1,48.368118632008006,4.944587953265579,1.8497896237883715,0.07,-0.04,-0.03,0.30,0.19,0.85,
53169.2,48.636959197713004,4.94024602910179,1.7915543172778579,0.03,0.07,0.03,0.29,0.18,0.86,
53169.3,48.926166823081495,4.927907323683575,1.8120616068250588,-0.01,0.18,0.03,0.26,0.18,0.85,
53169.4,48.94218425857187,4.958491181162484,1.8149279334829393,-0.05,-0.12,-0.01,0.27,0.16,0.82,
53169.5,49.57189828925255,4.956810596929175,1.8317572737844618,-0.00,-0.42,-0.16,0.31,0.21,0.83,
53169.6,50.24635111129961,4.984907378889173,1.8189245846773006,-0.16,0.39,-0.21,0.40,0.22,0.88,
53169.7,47.28345799537085,4.993765093244329,1.8053696437914486,-0.05,0.66,-0.41,0.22,0.24,0.81,
53169.8,47.92121242205794,5.025610229508391,1.8279986141888798,-0.01,0.28,-0.25,0.28,0.27,0.85,
53169.9,46.41375765869425,5.099203374757727,1.8396785524239874,-0.17,0.06,-0.33,0.22,0.22,0.88,
53170.0,43.998112459513536,5.117343969804565,1.9059112949099872,-0.39,-0.17,-0.22,0.28,0.13,0.89,
53170.1,43.79889153848531,5.147855110195102,1.923263349992135,-0.47,0.43,-0.06,0.17,0.03,0.88,
53170.2,44.185233958869105,5.17040601825824,2.0245937247904275,-0.67,0.06,0.43,0.14,-0.01,0.85,
53170.3,44.46832917931592,5.132155590795712,2.079291489847357,-0.51,-0.23,0.78,0.17,-0.13,0.83,
53170.4,44.35852454714877,5.097843090624977,2.1486543202278323,-0.02,-0.31,0.80,0.08,-0.11,0.86,
53170.5,45.81032743825348,5.004403852986298,2.172742759081507,0.33,-0.92,0.71,0.16,-0.09,0.93,
53170.6,46.34412476247663,4.858024335331654,2.186625104875481,0.37,-0.70,0.61,0.31,-0.05,0.93,
53170.7,46.48440383612551,4.772787786987315,2.1617775882023818,0.48,0.28,0.39,0.27,-0.00,0.87,
53170.8,47.56254934294418,4.753597630385604,2.130931086154308,0.52,-0.31,0.35,0.29,0.08,0.87,
53170.9,47.98711493724123,4.74983544455937,2.0897438116699014,0.65,0.53,0.20,0.27,0.16,0.89,
53171.0,50.20693278821163,4.7343143095354625,2.0435229901864256,0.51,0.07,0.31,0.27,0.20,0.89,
53171.1,50.98133383896502,4.723537746580164,1.9863288117547382,0.26,0.12,0.17,0.25,0.29,0.83,
53171.2,49.493394508762485,4.711056536136592,1.9987444879375016,-0.01,-0.41,-0.21,0.12,0.39,0.98,
53171.3,52.01111996486905,4.7003286256698695,2.0013904193337546,-0.11,-0.09,-0.11,0.36,0.14,0.99,
53171.4,52.066592936354105,4.728455251149885,2.0017464750174527,0.01,0.11,0.12,0.21,0.18,0.81,
53171.5,51.13956980655977,4.711086332402445,2.020276281624439,-0.01,0.08,0.06,0.29,0.20,0.87,
53171.6,51.61611957518698,4.684754086658033,1.994682315606749,0.03,-0.22,0.17,0.28,0.17,0.87,
53171.7,52.294329520513024,4.7003286256698695,2.0130332642436324,-0.02,-0.57,0.16,0.33,0.16,0.82,
53171.8,50.7542756819561,4.630246642245572,1.9803424785428978,0.04,-0.22,0.09,0.38,0.15,0.82,
53171.9,51.04456386335376,4.645110992764423,1.9787286588562043,0.03,-0.05,-0.00,0.37,0.17,0.81,
53172.0,52.25269371046817,4.614384635252591,1.9852158591397404,0.02,-0.05,-0.03,0.39,0.19,0.82,
53172.1,51.18801617566362,4.6227590790217885,1.9980300898069965,0.03,-0.02,0.01,0.38,0.18,0.83,
53172.2,51.34935345259958,4.644288563144472,1.9696045548042358,0.02,-0.01,0.03,0.35,0.20,0.85,
53172.3,51.54867020593257,4.649627673069651,1.9770389274411901,0.03,0.02,-0.03,0.25,0.28,0.83,
53172.4,49.29139985839315,4.62405934848133,1.9678251912858005,0.01,-0.42,-0.02,0.43,0.24,0.92,
53172.5,48.90750044727291,4.6308921833377426,1.9490181066915504,0.00,-0.14,-0.03,0.36,0.20,0.85,
53172.6,49.50253528860921,4.681579766683831,1.9254386211741044,0.31,0.11,0.04,0.34,0.17,0.81,
53172.7,48.21450507886605,4.609767322215234,1.9086210252699591,0.29,0.09,-0.00,0.34,0.20,0.83,
53172.8,49.19656390440292,4.682030928322503,1.8629635139523586,-0.02,0.61,-0.13,0.35,0.21,0.82,
53172.9,48.08097856741271,4.691903616262131,1.8738696079652868,-0.18,0.31,-0.23,0.25,0.20,0.85,
53173.0,47.92635809239004,4.740050768175575,1.8613483850456964,0.09,0.50,-0.11,0.30,0.22,0.87,
53173.1,47.4901221308179,4.725948954119103,1.8443570341045519,0.21,0.70,-0.15,0.20,0.25,0.83,
53173.2,46.65586994151968,4.779355098360031,1.8271537070727748,0.18,0.46,-0.24,0.14,0.28,0.87,
53173.3,46.90550820532702,4.7692029091261885,1.7714775511598606,0.04,0.42,-0.44,0.09,0.29,0.85,
53173.4,49.35256933534464,4.814246355377099,1.7883014843935303,-0.01,0.25,-0.54,0.04,0.23,0.80,
53173.5,47.9891123068556,4.83980126338704,1.7677363078993993,0.09,0.04,-0.40,0.10,0.26,0.83,
53173.6,48.04915920180082,4.900650099062915,1.7551934236531035,-0.06,0.50,-0.24,-0.03,0.26,0.82,
53173.7,47.84913374346499,4.902006826366994,1.7702386188283603,0.03,0.10,-0.08,-0.07,0.26,0.84,
53173.8,48.2705769594688,4.917827262256939,1.7438127963469685,0.31,-0.10,-0.38,-0.23,0.25,0.82,
53173.9,46.88945936988397,4.982691878786547,1.6911563454989396,-0.07,-0.57,-0.64,-0.17,0.30,0.92,
53174.0,46.99364318713756,5.058591182279448,1.7063356008293697,-0.27,0.05,-0.57,-0.07,0.23,0.90,
53174.1,46.142825011045865,5.097921262140941,1.7448315499175517,-0.15,0.59,-0.41,-0.10,0.20,0.86,
53174.2,45.193885648392744,5.140291158306399,1.703057846949317,-0.09,-0.26,-0.37,-0.10,0.18,0.91,
53174.3,46.93998934810275,5.09249572518008,1.712944806026428,-0.20,-1.30,0.30,0.02,0.20,0.89,
53174.4,49.029744033596586,5.013616480547685,1.7514644321519741,-0.21,0.28,0.53,0.16,0.22,0.92,
53174.5,51.30230209259619,5.0252902082650746,1.7600243158505229,-0.14,-0.35,0.57,-0.03,0.24,0.86,
53174.6,50.799697833747004,4.956053263974427,1.7673359536914086,0.13,-1.82,0.53,0.29,0.24,0.88,
53174.7,53.409547835569626,4.920618473538943,1.736505448490082,0.29,-0.79,0.21,0.32,0.31,0.88,
53174.8,54.968651065857536,4.879479815403515,1.7409859791253774,-0.01,-0.22,0.23,0.37,0.27,0.86,
53174.9,54.68342070499979,4.850527938571171,1.7494963024633239,0.01,0.47,0.28,0.39,0.23,0.89,
53175.0,53.65782049245012,4.854473697515806,1.7548451794579474,0.00,1.06,0.32,0.24,0.21,0.86,
53175.1,52.91989229013982,4.801665597294023,1.7854032616018283,0.02,0.34,0.24,0.26,0.22,0.94,
53175.2,49.53548425119109,4.768432387841878,1.8327895280263031,-0.10,0.94,0.02,0.05,0.20,0.91,
53175.3,49.540163503969175,4.811786251131893,1.8467931457923188,-0.17,0.74,-0.08,0.06,0.20,0.97,
53175.4,48.85843018354151,4.863004104357039,1.867827151479151,-0.24,0.80,-0.19,-0.07,0.16,0.96,
53175.5,48.00860964452105,4.888020225236791,1.9443588226733448,-0.44,1.07,-0.19,-0.14,0.16,0.93,
53175.6,48.77201861723585,4.962896897877924,1.9569740557850575,-0.68,1.22,-0.14,-0.22,0.08,0.89,
53175.7,48.954195938652695,5.017644565906654,2.01098770374227,-0.67,1.49,-0.08,-0.39,-0.05,0.81,
53175.8,49.46698494956004,5.157355577656571,2.0101274368109725,-0.60,1.61,0.00,-0.58,-0.10,0.66,
53175.9,47.05817251020273,5.191775058936837,2.0083566101917008,-0.29,0.67,0.12,-0.64,-0.09,0.63,
53176.0,48.1327757354591,5.228970632380011,2.0116771715072144,-0.14,0.53,0.07,-0.74,-0.13,0.58,
53176.1,47.20060486900565,5.249142866345768,1.9936627755595453,-0.22,0.41,0.07,-0.69,-0.05,0.55,
53176.2,47.217331563738334,5.254563984756787,1.9974547419614845,-0.16,-0.34,-0.05,-0.72,-0.09,0.49,
53176.3,47.62170198554436,5.240902365879798,2.032400740066101,0.02,-0.56,-0.13,-0.65,-0.11,0.59,
53176.4,47.47681750075504,5.230573808551361,2.028981435846506,0.23,-0.45,-0.10,-0.64,-0.12,0.58,
53176.5,47.68667423924634,5.207439874922841,2.030786760745562,0.37,-1.28,-0.19,-0.53,-0.12,0.71,
53176.6,47.143661291842825,5.141684389341121,2.033417644752488,0.62,-1.10,-0.21,-0.41,-0.04,0.79,
53176.7,46.836251984974204,5.051629377562696,2.0049187121186316,0.68,-1.73,-0.26,-0.27,0.01,0.93,
53176.8,48.4082224420604,5.021695605548922,1.9899151013801817,0.58,-1.21,-0.25,-0.15,0.05,0.99,
53176.9,47.91028490835762,4.977350707671069,1.9679168464469123,0.49,-1.42,-0.09,0.03,0.13,0.96,
53177.0,48.08400773646057,4.915415111361826,1.913988064368627,0.24,-0.91,-0.04,0.13,0.11,0.95,
53177.1,47.45798562939645,4.919631241503163,1.9187056542550978,0.41,-1.23,-0.07,0.15,0.18,0.92,
53177.2,50.16341794575007,4.895372360410703,1.8226355356535624,0.27,-0.44,-0.10,0.30,0.22,0.89,
53177.3,48.290248498014584,4.9272494696677755,1.7760013110082167,0.04,-0.30,-0.08,0.29,0.21,0.85,
53177.4,48.537812064410154,4.902006826366994,1.8312626558819227,-0.02,-0.48,0.02,0.33,0.17,0.85,
53177.5,49.54050968651817,4.914211266791627,1.795945363048006,0.01,-0.31,-0.13,0.25,0.21,0.77,
53177.6,50.63302677107108,4.950015197664684,1.8133264345638334,0.03,-0.48,-0.23,0.43,0.28,0.86,
53177.7,50.325256084793054,4.943281283503422,1.794412744204767,-0.04,0.03,-0.36,0.39,0.26,0.82,
53177.8,49.42381005143169,4.982340917407651,1.8210543097602592,-0.10,-0.10,-0.22,0.44,0.31,0.82,
53177.9,47.15429778927897,5.005174243389192,1.8426113881224322,-0.05,-0.28,-0.53,0.38,0.29,0.77,
53178.0,47.43722694256063,5.0314097872394985,1.8805498394439144,-0.03,-0.16,-0.37,0.45,0.27,0.79,
53178.1,45.462622009734545,5.048622707655874,1.9149711895345611,-0.25,0.08,-0.37,0.34,0.22,0.71,
53178.2,44.20175788359554,5.04721845604116,2.015871647031446,-0.26,-0.43,0.04,0.40,0.16,0.78,
53178.3,44.61814877378935,5.047250392071759,2.051712959108432,-0.23,0.22,0.22,0.36,0.15,0.78,
53178.4,44.63770939463628,5.019961866798921,2.0874541468444128,-0.29,0.08,0.45,0.39,0.13,0.84,
53178.5,45.23070748949214,4.99446933971279,2.122833031758147,-0.56,0.06,0.57,0.37,-0.01,0.79,
53178.6,44.8667917284042,4.998455544975353,2.159398594003632,-0.15,-0.25,0.81,0.38,-0.09,0.81,
53178.7,45.488396322578794,4.910790629384123,2.190246554971581,0.37,0.41,0.68,0.39,0.03,0.78,
53178.8,46.66953824498374,4.86530853209365,2.1368721580287104,0.46,0.03,0.53,0.37,0.09,0.77,
53178.9,46.70621157833292,4.819935660939064,2.1373879932958952,0.32,-0.17,0.43,0.38,0.04,0.78,
53179.0,48.025049713665055,4.7577782985673736,2.1530663902398945,0.17,-0.22,0.41,0.40,0.03,0.87,
53179.1,47.12254874261366,4.745491141310071,2.1443585941500154,0.43,0.35,0.28,0.34,0.13,0.88,
53179.2,48.84831522171466,4.735696462875577,2.1216996874880723,0.40,0.57,0.20,0.32,0.11,0.83,
53179.3,49.79133358326527,4.775158196253124,2.1101053175483155,0.14,0.58,0.13,0.34,0.19,0.91,
53179.4,49.47552324129579,4.776987127932297,2.0791105626097117,0.13,0.21,0.25,0.25,0.20,0.90,
53179.5,50.31020274258493,4.780378724300354,2.0581560801379073,0.16,-0.20,0.21,0.27,0.15,0.90,
53179.6,51.219040404911915,4.737225885572155,2.0303911806287305,0.19,-0.19,0.12,0.30,0.13,0.89,
53179.7,51.45613860366905,4.744839458742404,2.0387532204263112,0.13,0.29,0.09,0.20,0.18,0.92,
53179.8,50.5979703150235,4.714822065607799,2.0364756250321245,0.15,-0.05,0.12,0.26,0.14,0.83,
53179.9,50.92324125583524,4.7321405817725015,2.0334876645901403,0.30,0.40,0.14,0.27,0.18,0.84,
53180.0,52.18301351972689,4.721842480271688,1.9929345079291438,0.11,0.21,0.04,0.16,0.25,0.90,
53180.1,51.67449467580694,4.729351064007468,2.0187207728962577,-0.05,-0.16,0.03,0.26,0.21,0.86,
53180.2,51.772134396796886,4.734806748896025,2.010758001033547,-0.10,-0.24,0.01,0.29,0.17,0.87,
53180.3,51.16020035144507,4.7110958776571525,2.005592856916504,-0.10,-0.15,0.01,0.27,0.16,0.90,
53180.4,52.04511312313578,4.71323446739523,2.0006676384076174,-0.05,-0.09,0.03,0.32,0.17,0.87,
53180.5,51.608224150807594,4.732925245681734,2.0081855375096835,-0.01,-0.05,0.03,0.29,0.17,0.85,
53180.6,51.77884992929062,4.66661117136982,2.043182058662767,-0.01,-0.08,0.06,0.32,0.16,0.85,
53180.7,51.436589117086676,4.693829131825012,1.994977570136106,-0.01,-0.07,0.02,0.31,0.16,0.84,
53180.8,51.85108774172438,4.692783649527485,2.0100413384220626,-0.01,-0.02,0.01,0.32,0.16,0.84,
53180.9,52.08878382147159,4.682030928322503,2.0115037035453036,0.00,-0.04,0.02,0.33,0.16,0.84,
53181.0,51.103929398824114,4.692495411348994,2.010208551515862,-0.00,-0.04,0.03,0.33,0.16,0.84,
53181.1,51.39884142663139,4.6704494945235515,2.021299294390964,-0.01,-0.08,0.04,0.32,0.16,0.84,
53181.2,51.24314685887274,4.670873048834341,2.026243219874199,0.02,-0.04,0.03,0.32,0.15,0.84,
53181.3,52.00957411861781,4.664754866589382,2.0299478105025166,0.04,-0.07,0.03,0.36,0.16,0.83,
53181.4,51.476414987836904,4.674260915626891,2.0171219147127495,0.02,-0.02,0.04,0.37,0.16,0.83,
53181.5,50.9467614279848,4.677544701193135,2.0183980271219015,0.04,-0.06,0.01,0.35,0.17,0.84,
53181.6,52.09273077887163,4.649627673069651,2.00067091505176,0.08,-0.01,0.04,0.35,0.18,0.84,
53181.7,50.9236389116096,4.633599362295036,1.9967260812279926,0.10,-0.01,0.05,0.35,0.17,0.84,
53181.8,50.699346149629974,4.6561590779407895,1.9922400265761429,0.14,0.12,0.08,0.34,0.20,0.85,
53181.9,52.768381631427744,4.657976966383608,1.9995958227996236,0.20,0.15,0.13,0.35,0.23,0.86,
53182.0,51.414115766003405,4.647214322791678,1.9255670962279707,0.20,0.24,0.10,0.30,0.22,0.84,
53182.1,51.32580150372714,4.667374364610162,1.9447657127139624,0.20,0.16,0.09,0.29,0.25,0.83,
53182.2,51.48154912199127,4.658359772577041,1.9009557217476198,0.23,0.15,0.20,0.29,0.32,0.86,
53182.3,50.91810483511734,4.65303637549226,1.8981059490538115,0.07,-0.21,0.27,0.31,0.34,0.84,
53182.4,48.857165288215405,4.608241313375277,1.8723332833743256,-0.03,-0.12,0.06,0.32,0.30,0.87,
53182.5,49.17213133473065,4.638087512569518,1.877373271397838,-0.13,0.09,-0.26,0.28,0.23,0.81,
53182.6,47.421623759631004,4.639337589407402,1.8957486826020868,-0.34,-0.12,-0.43,0.33,0.24,0.85,
53182.7,49.11360911193557,4.674819068776021,1.8564613865595483,-0.45,0.11,-0.42,0.36,0.21,0.92,
53182.8,47.634954602686456,4.726812140632008,1.9429242589841256,-0.33,0.71,-0.39,0.28,0.21,0.88,
53182.9,47.19001271455646,4.7589250992524965,1.9366031027099002,-0.09,0.68,-0.31,0.23,0.13,0.88,
53183.0,47.56190282148098,4.788005520476032,1.9329351508204033,-0.04,0.63,-0.31,0.15,0.16,0.85,
53183.1,46.730796055706136,4.86700701414243,1.9127464136879622,-0.08,0.45,-0.47,0.01,0.16,0.83,
53183.2,45.98402548711889,4.885816683253704,1.9148341552150385,-0.22,-0.03,-0.64,-0.01,0.16,0.84,
53183.3,46.39184734411856,4.921439234775156,1.9309655603765126,-0.25,0.09,-0.59,0.03,0.11,0.86,
53183.4,46.487334834339556,5.018373084177344,1.9648943932474485,-0.14,0.39,-0.50,0.00,0.06,0.86,
53183.5,48.01355121213177,5.0483734488641465,1.9593511669866162,-0.10,0.65,-0.42,-0.18,0.07,0.83,
53183.6,46.19276783220508,5.117311374854392,1.9507067399658073,-0.23,-0.11,-0.36,-0.20,0.10,0.86,
53183.7,44.934632523255374,5.13280982129452,1.9583042030785722,-0.28,-0.23,-0.40,-0.14,0.05,0.90,
53183.8,45.72145448255119,5.170714659853807,1.9761506665747641,0.05,0.21,-0.33,-0.08,-0.00,0.93,
53183.9,46.32535914593648,5.208266714384639,1.9507260370020734,0.34,-0.17,-0.22,-0.12,0.04,0.93,
53184.0,45.76393886019865,5.236908901680005,1.9244658762314442,0.27,-0.61,-0.09,-0.11,0.07,0.92,
53184.1,47.32471869963941,5.1745380890086246,1.9011259063416608,0.16,-0.35,0.26,0.06,0.14,0.92,
53184.2,46.412797804054,5.147066506009846,1.8729188281059386,0.11,0.08,0.33,-0.01,0.17,0.87,
53184.3,46.86496452575207,5.149002764955806,1.8407883714907494,0.22,-0.58,0.34,0.02,0.18,0.90,
53184.4,49.19726110262644,5.0178564941214105,1.8276918523642374,0.15,-1.04,0.30,0.15,0.21,0.88,
53184.5,48.675461990616995,5.009482211998667,1.8281714748746813,0.25,-1.00,0.21,0.31,0.18,0.87,
53184.6,51.492796583599926,4.985993967851645,1.8324486185186004,0.48,-0.73,0.12,0.36,0.25,0.85,
53184.7,52.02033256333528,4.942158599639633,1.7954794888211527,0.07,-0.27,-0.02,0.43,0.26,0.78,
53184.8,51.45942090618587,4.951960202976802,1.7894032486711322,0.11,-0.32,-0.01,0.38,0.25,0.80,
53184.9,52.437396007048264,4.896033252320491,1.788385704393738,0.03,-0.02,0.11,0.43,0.28,0.84,
53185.0,52.247982736178436,4.903815956175788,1.7958580311324883,-0.08,0.53,0.16,0.51,0.30,0.84,
53185.1,51.01105076353554,4.890072613774838,1.8488143688579695,-0.37,0.05,0.06,0.40,0.25,0.85,
53185.2,47.686607134498466,4.865274603671587,1.905177190773861,-0.58,1.18,0.10,0.39,0.16,0.90,
53185.3,47.72207665221622,4.903753789135715,1.9736680133221687,-0.43,1.01,0.01,0.18,0.08,0.91,
53185.4,47.280184009794205,4.908938675774651,2.060046693590306,-0.34,1.43,0.05,0.12,0.04,0.90,
53185.5,47.177785026429554,5.006602503348459,2.0732559310417176,-0.25,1.18,-0.01,-0.09,0.01,0.90,
53185.6,46.387854013739414,5.078685190332184,2.061985943831986,-0.29,0.82,0.06,-0.13,-0.01,0.90,
53185.7,47.54650880979591,5.108610373245032,2.0608769462410725,-0.48,1.05,0.06,-0.29,-0.06,0.87,
53185.8,47.35407479826842,5.167425392121297,2.0712113975438973,-0.45,0.71,0.10,-0.36,-0.08,0.83,
53185.9,45.18264600485456,5.234064995221187,2.067981081556807,-0.35,1.03,0.09,-0.41,-0.10,0.79,
53186.0,47.016871439941646,5.271794873062838,2.0934514057050038,-0.24,0.85,0.04,-0.55,-0.14,0.74,
53186.1,47.376380190977024,5.287431783225855,2.044442936480748,-0.15,0.46,0.01,-0.57,-0.16,0.73,
53186.2,46.55110739821342,5.364831298839031,2.0359266415746538,-0.18,0.68,0.02,-0.62,-0.16,0.66,
53186.3,47.175556170542386,5.407758019721241,2.0135174488915695,-0.10,0.09,0.09,-0.62,-0.17,0.65,
53186.4,47.00576666750581,5.380590445889399,2.0234940912596535,-0.16,0.50,0.07,-0.63,-0.18,0.66,
53186.5,47.14429021631358,5.420360291273923,1.9902486859693889,-0.11,0.16,0.04,-0.71,-0.21,0.61,
53186.6,46.90533551740143,5.398003038800189,1.9995426836975454,-0.05,-0.05,0.01,-0.67,-0.19,0.62,
53186.7,46.314435114767406,5.4232578689676085,2.0261942070282957,-0.03,-0.24,0.01,-0.70,-0.21,0.59,
53186.8,47.45294722143188,5.365592953737144,2.0619291117345058,0.04,-0.42,-0.05,-0.65,-0.21,0.63,
53186.9,46.83657224861785,5.3739837211595844,2.060009968648351,0.18,-0.75,-0.12,-0.58,-0.18,0.66,
53187.0,46.503214942625206,5.312793305220173,2.0854392230638394,0.42,-1.07,-0.21,-0.50,-0.18,0.74,
53187.1,47.27376122121023,5.2680114977287795,2.0939828286356685,0.58,-0.79,-0.16,-0.37,-0.14,0.80,
53187.2,47.44126895436082,5.19471788318651,2.0904897197058476,0.63,-0.92,-0.21,-0.33,-0.07,0.86,
53187.3,47.968386464420504,5.14506359161148,2.080149712669299,0.54,-0.91,-0.13,-0.18,0.01,0.89,
53187.4,47.079221531371985,5.0843962142157855,2.071740973604525,0.44,-1.73,-0.14,-0.06,0.05,0.96,
53187.5,46.889280224801915,5.010192017859124,2.0683697351673374,0.41,-1.12,-0.27,0.06,0.11,0.99,
53187.6,47.70457105980516,4.979149831771143,2.014059681480097,0.39,-1.01,-0.30,0.16,0.13,0.92,
53187.7,48.7758967113881,4.957587327163556,2.009310798937851,0.27,-0.79,-0.11,0.32,0.17,0.93,
53187.8,48.83336666665529,4.943151604997285,1.9489602709578961,0.17,-0.18,-0.03,0.28,0.16,0.92,
53187.9,48.85957429204639,4.937961973438528,1.9577921554627002,0.17,-0.45,0.01,0.31,0.20,0.86,
53188.0,49.294134539516975,4.936754186856811,1.944595628193561,0.09,-0.16,-0.02,0.29,0.21,0.84,
53188.1,47.655393189019016,4.948459801744886,1.9436579950753496,0.09,-0.36,0.06,0.38,0.22,0.89,
53188.2,50.1658947891892,4.956489680611589,1.9301116002012337,0.04,-0.07,-0.03,0.35,0.21,0.85,
53188.3,49.80497565504876,4.923274727833009,1.9016675718548692,-0.01,-0.10,-0.06,0.33,0.22,0.82,
53188.4,48.70300606738767,4.909357153304443,1.912499468374768,0.04,-0.13,-0.00,0.38,0.23,0.80,
53188.5,49.45540010959369,4.942222768963861,1.8921383047677656,-0.02,0.15,0.09,0.31,0.22,0.82,
53188.6,50.27812745120884,4.946220868784628,1.9339500636439637,-0.08,-0.13,-0.03,0.27,0.16,0.79,
53188.7,51.35539114834975,4.936943792934656,1.92889990116155,-0.18,-0.63,-0.18,0.31,0.15,0.99,
53188.8,49.953243137958516,4.9128977259762046,1.901494702670172,-0.14,-0.19,0.12,0.53,0.21,0.79,
53188.9,50.623285156141336,4.927408555601703,1.9032169000581087,0.04,-0.30,-0.07,0.47,0.24,0.80,
53189.0,51.50851774221425,4.942473313935803,1.9219920281123184,0.08,0.34,-0.21,0.46,0.27,0.69,
53189.1,50.652990040075615,4.988716255359755,1.8925909597018493,0.06,0.49,-0.32,0.43,0.23,0.79,
53189.2,47.88113302752975,5.024343419331538,1.8863595022761568,-0.15,0.59,-0.18,0.40,0.21,0.80,
53189.3,47.97043360237637,5.048641524789918,1.9419850179788543,-0.38,0.51,-0.03,0.32,0.21,0.83,
53189.4,47.05039638515281,5.073722087729058,1.9677457119370578,-0.50,0.13,0.05,0.33,0.20,0.76,
53189.5,45.0042009150257,5.09022156707741,2.0330410405243735,-0.55,0.04,0.09,0.19,0.08,0.80,
53189.6,46.08028211719194,5.0822476117614,2.085393792737978,-0.31,-0.06,0.42,0.30,-0.08,0.83,
53189.7,43.32658537203226,5.061088611475677,2.1645446453040127,-0.27,0.24,0.87,0.29,-0.10,0.88,
53189.8,44.909325312233314,5.041800885837846,2.1994716346248335,-0.21,0.45,0.93,0.16,-0.09,0.86,
53189.9,45.51866979602985,4.986168725916066,2.212343572704227,-0.09,-0.13,0.75,0.18,-0.11,0.88,
53190.0,47.18625435441979,4.883904760972427,2.225156655386039,0.28,-0.66,0.68,0.26,-0.05,0.94,
53190.1,46.991252377437235,4.82208485947119,2.203045987451681,0.59,0.37,0.50,0.22,0.00,0.85,
53190.2,46.89267000289065,4.7499443024497126,2.143209920124076,0.61,-0.21,0.56,0.25,0.03,0.85,
53190.3,48.96146750251671,4.710479674828889,2.1145426199794484,0.42,0.38,0.21,0.24,0.08,0.87,
53190.4,50.01031593581469,4.722653218448137,2.0727062060310804,0.36,0.14,0.23,0.16,0.18,0.96,
53190.5,49.92332220515778,4.726475755869665,2.062267815937492,0.14,-0.09,0.01,0.13,0.25,0.91,
53190.6,50.3324875204872,4.724616027767246,2.036013393948399,-0.03,-0.41,-0.19,0.26,0.12,0.94,
53190.7,51.55295723816433,4.745113414298619,2.0711101266714524,-0.08,0.31,-0.27,0.22,0.18,0.98,
53190.8,51.85897993597638,4.778765953634128,2.0819815713890497,0.22,0.38,-0.33,0.15,0.14,0.83,
53190.9,50.97122129201929,4.7810870353203825,2.034114436154951,0.29,-0.40,-0.22,0.21,0.18,0.94,
53191.0,52.56149446124986,4.804785110921413,2.0379308500161377,0.09,-0.29,-0.11,0.23,0.15,0.89,
53191.1,52.03795249623106,4.802638927537732,2.041501803435974,0.02,-0.34,-0.03,0.24,0.20,0.92,
53191.2,52.486937422562576,4.765833348956103,2.0326794413653406,0.05,-0.21,0.11,0.27,0.17,0.83,
53191.3,52.214509477730424,4.7255544970099095,2.0173639389042792,-0.01,-0.20,0.09,0.32,0.19,0.84,
53191.4,51.75719080475678,4.746098644407125,2.034735158608207,-0.02,-0.09,0.03,0.32,0.20,0.84,
53191.5,51.33644124790888,4.711105558629469,1.9967141759771623,0.01,-0.12,0.03,0.33,0.19,0.82,
53191.6,51.85681151015746,4.761617676378865,2.027748393016059,-0.02,-0.05,0.01,0.33,0.18,0.82,
53191.7,51.70293125152577,4.7190085719290895,2.0083965913236836,-0.03,-0.10,0.05,0.36,0.17,0.82,
53191.8,52.05669025207038,4.725650235036948,2.0260753517100905,-0.02,-0.05,0.07,0.35,0.17,0.83,
53191.9,51.80828987720015,4.695186376430116,2.0271335195322733,-0.01,-0.04,0.04,0.37,0.18,0.83,
53192.0,52.59381807779314,4.736506182425403,2.0244632087609267,-0.01,-0.04,0.04,0.36,0.18,0.82,
53192.1,52.4151294952135,4.690907494765355,2.0284641570813973,0.00,-0.04,0.03,0.37,0.17,0.82,
53192.2,51.87633275396402,4.686096131373926,2.017493228609527,-0.04,-0.02,0.02,0.38,0.17,0.80,
53192.3,50.84520528034084,4.68855272583178,2.023071068217548,-0.01,0.12,0.05,0.39,0.18,0.84,
53192.4,51.98521905311162,4.686418006943793,2.0301794465214025,0.05,-0.17,0.08,0.39,0.16,0.81,
53192.5,51.42699485678704,4.664732783035765,2.05347458479457,0.04,0.02,-0.06,0.42,0.18,0.82,
53192.6,52.36478683237429,4.702536049762809,1.9959831055841817,0.17,0.16,0.01,0.33,0.19,0.87,
53192.7,51.66601494212613,4.682030928322503,1.993822017802593,0.26,-0.14,0.15,0.35,0.20,0.83,
53192.8,51.122139039754586,4.6892459480691695,1.9699915927202707,0.18,-0.11,0.15,0.40,0.18,0.81,
53192.9,51.122139039754586,4.6892459480691695,1.9699915927202707,0.09,-0.02,0.13,0.38,0.24,0.82,
53193.0,52.25618145253248,4.628974398427031,1.9466190090682736,0.18,0.07,0.14,0.37,0.25,0.82,
53193.1,51.62442154639604,4.643800727633619,1.9069755704978766,0.09,-0.09,0.20,0.43,0.26,0.79,
53193.2,50.587378860739555,4.629866922164156,1.8737029395819398,0.10,0.16,0.12,0.40,0.29,0.83,
53193.3,49.07627328964578,4.617120290914007,1.9050463269791482,0.04,-0.41,0.12,0.41,0.25,0.92,
53193.4,50.13847325158595,4.5930014749258365,1.8679388277232978,-0.37,0.47,0.08,0.38,0.24,0.86,
53193.5,48.473692865305814,4.621590289671124,1.9133062430164902,-0.33,0.43,-0.02,0.35,0.19,0.84,
53193.6,47.83636064752418,4.629063433688641,1.9133961174115057,-0.25,0.62,-0.21,0.34,0.15,0.82,
53193.7,46.36477973634729,4.703155632447475,1.935106620575951,-0.22,0.59,-0.17,0.28,0.10,0.79,
53193.8,47.76666724819725,4.695716347866676,1.9492720869500981,-0.13,0.55,-0.20,0.20,0.09,0.82,
53193.9,47.53821199834929,4.691406658677625,1.9673216617899514,-0.11,0.37,-0.22,0.14,0.11,0.85,
53194.0,47.351614544807234,4.734926147493901,1.9532152322713385,-0.12,0.18,-0.21,0.14,0.14,0.87,
53194.1,47.93643082249658,4.758380676446165,1.9822091036488703,-0.20,0.28,-0.33,0.09,0.14,0.85,
53194.2,46.909587506180436,4.8078426947174036,2.0081909323647302,-0.18,0.27,-0.54,0.03,0.10,0.84,
53194.3,47.26134678571909,4.853535896516987,1.9799010284869647,-0.07,-0.21,-0.72,0.05,0.08,0.82,
53194.4,45.58477048313395,4.904163463968063,1.9774377176035616,-0.05,-0.10,-0.92,0.06,0.07,0.88,
53194.5,46.700451817942835,4.98678575582747,1.9553624336965731,0.07,-0.31,-0.75,0.10,0.06,0.93,
53194.6,46.91715251376622,5.032409432701317,1.9333549986859444,0.09,0.11,-0.68,0.08,0.05,0.91,
53194.7,46.15374957682203,5.078866158264656,1.925274177380037,0.20,-0.48,-0.45,0.15,0.03,0.93,
53194.8,45.51082618454646,5.138861914007387,1.9152918047374403,-0.09,-0.15,-0.17,0.14,0.06,0.93,
53194.9,45.615104954389835,5.141974301218832,1.9233338309011798,0.07,-0.30,0.27,0.16,0.08,0.91,
53195.0,48.05860692945646,5.09188313013202,1.874233211594691,0.39,-0.22,0.69,0.30,0.14,0.88,
53195.1,50.39907638042586,5.036091386564204,1.8384703142397836,0.18,-0.02,0.39,0.12,0.17,0.84,
53195.2,53.3347175862027,4.993915466954798,1.8332937836534309,0.25,-0.87,0.39,0.29,0.27,0.79,
53195.3,57.180147778752726,4.9285982907947545,1.8091425512062342,0.16,-0.54,0.31,0.37,0.29,0.80,
53195.4,57.07411059315774,4.890417959322511,1.8139241429417081,0.11,-0.59,0.23,0.48,0.26,0.83,
53195.5,58.469007174741726,4.845572313229098,1.8323674398295096,-0.14,0.41,0.18,0.42,0.25,0.86,
53195.6,54.32109534978101,4.82110602959054,1.876911004874655,-0.27,0.63,-0.02,0.31,0.22,0.87,
53195.7,51.454894810892384,4.798993194092775,1.9147252542185411,-0.67,0.94,0.10,0.35,0.13,0.94,
53195.8,47.62164318878549,4.809877337055911,1.9972859757946826,-0.59,0.69,0.01,0.21,0.00,0.95,
53195.9,47.57481791872671,4.881885456490074,2.061035975825953,-0.51,1.08,-0.17,0.13,-0.06,0.93,
53196.0,46.826662276955,4.94443968396764,2.1191514415264088,-0.41,1.03,-0.06,0.05,-0.05,0.91,
53196.1,46.41501912096989,4.991961533122808,2.1498554179178697,-0.58,1.16,0.01,-0.05,-0.09,0.87,
53196.2,47.17214220278744,5.075726948694724,2.198405204696811,-0.79,1.05,0.19,-0.20,-0.16,0.85,
53196.3,45.81004802442364,5.1656576219154235,2.230605334778471,-0.55,1.13,0.26,-0.29,-0.21,0.81,
53196.4,45.45328260973018,5.255109090093306,2.235310980456749,-0.37,1.06,0.09,-0.50,-0.25,0.68,
53196.5,46.34876805266781,5.323535252237257,2.2159365447661616,-0.21,0.56,0.15,-0.48,-0.28,0.64,
53196.6,47.19716728787862,5.366561209356658,2.1904523772588713,-0.14,0.47,0.07,-0.55,-0.29,0.64,
53196.7,46.05025624250097,5.3860464542652755,2.190881228775985,0.07,-0.29,0.07,-0.54,-0.29,0.68,
53196.8,48.23081276528522,5.357512476722277,2.1838385192411263,0.17,-0.60,-0.11,-0.51,-0.29,0.63,
53196.9,47.702374154752505,5.268252870153151,2.2471642145133015,0.31,-1.33,-0.28,-0.39,-0.28,0.69,
53197.0,47.51857531534379,5.2077896014302,2.2754193749874503,0.45,-1.77,-0.42,-0.21,-0.24,0.86,
53197.1,46.71498367761676,5.117317349804932,2.265361747712574,0.79,-0.83,-0.49,-0.10,-0.20,0.89,
53197.2,47.698579643423344,5.045652049736743,2.1940315312786423,0.81,-1.27,-0.33,0.03,-0.10,0.92,
53197.3,47.51361910021168,4.986252849242879,2.154862795065461,0.46,-0.46,-0.27,0.10,0.00,0.89,
53197.4,47.377974840636654,4.9729913721320305,2.0897951748339603,0.32,-1.51,-0.17,0.19,0.02,0.94,
53197.5,48.435522088648945,4.901200259170292,2.090638152327217,0.27,-1.14,-0.28,0.37,0.07,0.98,
53197.6,49.306118281608825,4.867639218437384,2.0458058240068047,0.29,-0.62,-0.34,0.43,0.11,0.86,
53197.7,49.49997373736677,4.852304344650992,2.002461776537101,0.22,-0.32,-0.34,0.40,0.14,0.77,
53197.8,52.4040160674733,4.897251003128699,1.981863355590306,0.09,-0.28,-0.06,0.53,0.19,0.81,
53197.9,53.313132528486825,4.90301733484462,1.9768909789675222,0.03,0.10,0.08,0.42,0.16,0.78,
53198.0,51.99451990354368,4.92496899793241,1.9693847706134122,-0.03,0.24,0.02,0.41,0.14,0.78,
53198.1,53.30217819189006,4.921840693665268,1.9364757590043629,0.01,-0.13,0.00,0.46,0.14,0.81,
53198.2,52.8096941858216,4.934993961520869,1.9359912816514169,-0.06,0.04,-0.05,0.47,0.12,0.77,
53198.3,53.721036847775004,4.923109853595139,1.9116796116146946,0.11,-0.15,-0.09,0.51,0.17,0.77,
53198.4,52.52705398173403,4.91885134021247,1.9221867268710462,0.14,0.08,-0.16,0.48,0.20,0.74,
53198.5,52.5483720014236,5.005411808035102,1.9107114722633596,-0.17,0.50,-0.27,0.42,0.17,0.80,
53198.6,51.04507517870848,5.029123616975314,1.8850833951333767,-0.15,0.12,-0.32,0.37,0.20,0.82,
53198.7,47.970417967743415,5.070088147824689,1.937291793504493,-0.27,0.54,-0.46,0.30,0.16,0.80,
53198.8,46.238217958740584,5.150433453155893,1.9687776098814544,-0.18,-0.45,-0.22,0.40,0.14,0.84,
53198.9,44.75582978786116,5.154999951386084,2.026828851186533,-0.25,-0.11,0.04,0.48,0.13,0.83,
53199.0,44.74959888088384,5.1324088772032646,2.1077409408603764,-0.29,0.54,0.26,0.36,0.04,0.81,
53199.1,43.50154135200269,5.144529794365901,2.14066456400523,-0.21,0.27,0.52,0.33,-0.01,0.79,
53199.2,44.60305034411884,5.111044590708422,2.185958012918967,-0.10,-0.02,0.71,0.31,-0.04,0.78,
53199.3,43.75608986186951,5.033701514660418,2.1714459020175565,0.14,-0.23,0.78,0.31,-0.05,0.78,
53199.4,45.174051179853244,5.021676642558992,2.227522771521983,0.37,-0.27,0.77,0.32,-0.06,0.81,
53199.5,45.5756974713498,4.892093533972674,2.2298737664955146,0.43,-0.17,0.59,0.32,-0.02,0.86,
53199.6,46.74899143297104,4.825610667914944,2.1805099087447513,0.44,0.12,0.46,0.33,0.08,0.88,
53199.7,48.00213953564987,4.830464382179572,2.137743540752523,0.61,0.60,0.19,0.32,0.06,0.85,
53199.8,48.10369632367142,4.813873119868864,2.0945907934621557,0.66,-0.07,0.16,0.32,0.16,0.90,
53199.9,49.91293419545679,4.794849865217173,2.0105773666079774,0.48,0.08,0.18,0.37,0.23,0.90,
53200.0,49.47878434238254,4.813690608739202,1.9951058168426679,0.23,0.09,-0.00,0.30,0.24,0.83,
53200.1,50.48752915324734,4.781282587832779,1.9789656443148531,0.26,-0.09,0.12,0.29,0.34,0.90,
53200.2,51.67271136683269,4.812786359141327,1.9608932844130493,0.02,0.29,-0.13,0.13,0.19,0.77,
53200.3,51.759301579522884,4.849405744092814,1.9334096744231604,0.66,0.39,-0.27,0.02,0.31,0.69,
53200.4,52.13691398615764,4.825717492119294,1.8835201648192266,-0.12,-1.08,0.26,0.35,0.35,0.97,
53200.5,51.981161010504565,4.829967451632412,1.9385855034862502,-0.11,-0.08,0.05,0.33,0.24,0.81,
53200.6,52.36686261367966,4.803386198906972,1.9670132103574067,-0.32,0.03,0.09,0.22,0.24,0.84,
53200.7,52.66725168451455,4.816559781263796,1.986524594955018,-0.35,-0.32,0.24,0.35,0.23,0.86,
53200.8,51.97476406872858,4.7778619174829124,2.0483930459521074,-0.28,-0.09,0.03,0.31,0.21,0.87,
53200.9,51.64155013165271,4.7713902906466785,2.0655461215172033,-0.01,0.05,0.09,0.28,0.18,0.92,
53201.0,52.69488210443212,4.790211206567569,2.0201545250586346,-0.19,0.04,0.06,0.29,0.12,0.83,
53201.1,53.336819365237744,4.762187347089403,2.0707742502855973,-0.32,-0.29,-0.13,0.39,0.14,0.78,
53201.2,51.51059017328379,4.759666031220171,2.0762132538358182,0.03,0.20,-0.02,0.32,0.29,0.79,
53201.3,51.31280347047899,4.782831842238266,2.0588286389082286,0.16,0.03,0.08,0.38,0.12,0.83,
53201.4,52.44960343034064,4.7514500556153125,2.0473573110178425,0.14,0.10,0.12,0.27,0.14,0.86,
53201.5,52.294302748961094,4.746813602015241,2.046523370123391,0.17,0.01,-0.02,0.27,0.14,0.80,
53201.6,53.00958969846871,4.739611520083299,2.0033266465547572,0.13,-0.21,0.11,0.42,0.22,0.94,
53201.7,51.68822786670094,4.744418127968248,2.0484301943826173,0.09,-0.26,-0.03,0.20,0.12,0.79,
53201.8,53.730999432357486,4.739611520083299,2.031548859251492,-0.24,-0.21,0.06,0.38,0.13,0.93,
53201.9,51.535196710597695,4.744869320895828,2.0565391587769577,-0.13,0.05,-0.01,0.34,0.21,0.85,
53202.0,51.98043574269073,4.7571450222691,2.0716569867500523,-0.07,-0.02,-0.05,0.46,0.23,0.74,
53202.1,52.193786028606894,4.801709441976102,2.0644099108984273,0.20,0.47,-0.00,0.34,0.20,0.78,
53202.2,51.93039476067941,4.788598442017483,2.0380214972042143,0.10,0.08,0.02,0.34,0.15,0.84,
53202.3,52.74403473379715,4.802087957707069,2.0372471467390842,-0.10,-0.35,-0.08,0.29,0.27,0.83,
53202.4,53.916615249846686,4.80242985845439,2.032739234029232,0.01,-0.06,-0.02,0.30,0.32,0.89,
53202.5,52.27066768274536,4.803706253414944,2.0313202519187725,-0.03,0.17,-0.13,0.28,0.15,0.83,
53202.6,52.84225771104032,4.788044177534611,2.0576046961308063,-0.08,-0.11,-0.17,0.33,0.15,0.82,
53202.7,52.19269489114353,4.817221207893555,2.0282139513953785,-0.11,-0.14,-0.12,0.31,0.18,0.82,
53202.8,51.5290267713257,4.836359855544082,2.0713640405314995,-0.16,-0.05,-0.16,0.30,0.17,0.87,
53202.9,51.89166117980807,4.843816031585131,2.0822911995215447,-0.05,-0.09,-0.06,0.32,0.17,0.85,
53203.0,51.932010359700115,4.856589669400463,2.1004981266389695,-0.04,-0.06,-0.09,0.34,0.17,0.83,
53203.1,51.665841713844166,4.866236670444585,2.056955193697937,-0.02,0.08,-0.08,0.33,0.15,0.85,
53203.2,52.27200684879049,4.869424172428072,2.081936442575042,0.00,0.07,-0.04,0.28,0.15,0.83,
53203.3,51.963174460381076,4.892774091302737,2.077772689331776,0.09,0.01,0.06,0.32,0.14,0.85,
53203.4,51.51526569862568,4.865986838274331,2.0510441462728846,0.02,-0.07,-0.01,0.31,0.17,0.86,
53203.5,52.87499787234038,4.883319763251903,2.050229821677082,-0.01,-0.02,-0.06,0.28,0.22,0.86,
53203.6,51.969278424854046,4.863859553494381,2.0632385290015467,-0.16,0.22,-0.21,0.21,0.17,0.86,
53203.7,51.40030836483377,4.894910933062876,2.11746142171261,-0.30,-0.01,-0.34,0.33,0.16,0.84,
53203.8,49.64527469961265,4.93909934382628,2.1196401519392394,-0.36,-0.15,-0.62,0.26,0.12,0.85,
53203.9,49.723190766482396,4.989309918535394,2.1414599024680703,-0.62,0.12,-0.61,0.27,0.11,0.92,
53204.0,51.04304360047507,5.02055802695846,2.2095103973581227,-0.97,-0.26,-0.71,0.23,0.03,0.92,
53204.1,48.88097687239894,5.133045863178255,2.2783098308767396,-1.06,-0.27,-1.04,0.27,-0.00,0.82,
53204.2,47.48396992670263,5.161974581217424,2.398617322177653,-0.97,-0.09,-0.67,0.50,0.06,0.84,
53204.3,46.4385238783491,5.315030064961855,2.503464883116234,-0.90,0.04,-0.48,0.33,-0.18,0.86,
53204.4,45.634160450259195,5.446650661034037,2.5571583468218897,-0.87,0.03,-0.49,0.42,-0.15,0.82,
53204.5,44.137732157418334,5.608989027211543,2.6695057127603894,-1.07,-0.00,-0.38,0.41,-0.21,0.72,
53204.6,42.947500509342795,5.714166860942695,2.6720746472044987,-0.94,-0.41,-0.24,0.43,-0.25,0.69,
53204.7,44.29021788160451,5.896069426142124,2.7442686481168597,-0.82,-0.28,-0.39,0.40,-0.35,0.67,
53204.8,42.803421592204515,6.157046988620487,2.8105956096746234,-0.76,-0.48,-0.53,0.43,-0.46,0.68,
53204.9,44.66491016446803,0.1115079630047601,2.876954502978739,-0.32,-0.33,-0.53,0.57,-0.37,0.61,
53205.0,44.068079150332835,0.3460114383225104,2.9148393907199095,-0.20,-0.38,-0.32,0.67,-0.42,0.59,
53205.1,43.88834583348978,0.6476764498740173,2.9215378713417564,-0.17,-0.23,-0.14,0.62,-0.37,0.54,
53205.2,44.04392012525678,0.5288943219820994,2.940911062099562,-0.14,-0.21,0.08,0.70,-0.42,0.63,
53205.3,43.79628523059918,0.6097083601815897,2.956722239326707,-0.01,0.03,0.27,0.60,-0.38,0.57,
53205.4,43.08369877343402,0.49565174353452884,2.975388616948946,0.15,-0.10,0.05,0.61,-0.42,0.59,
53205.5,43.293962627599704,0.553638749087691,2.9729812773619573,0.14,-0.07,-0.05,0.62,-0.41,0.55,
53205.6,44.96865352665121,0.6717225390751104,3.026277991142186,0.05,-0.47,-0.10,0.65,-0.36,0.51,
53205.7,45.038535722201274,1.3431516937721222,3.082529094157594,-0.04,0.15,0.03,0.74,-0.35,0.55,
53205.8,43.7157054157885,0.9383550263806605,3.0213388061163764,-0.29,-0.15,0.30,0.75,-0.48,0.54,
53205.9,41.73108553584486,1.2007257495789105,2.9745180550364596,-0.43,0.26,0.36,0.70,-0.46,0.48,
53206.0,42.38335640319204,1.0711745271829554,2.9347589551704623,-0.56,0.19,0.55,0.64,-0.53,0.45,
53206.1,42.197081652645124,1.2241103241992817,2.8863515873396417,-0.64,0.31,0.66,0.66,-0.56,0.46,
53206.2,43.183735364139125,1.2337594116134432,2.835002381409588,-0.60,0.44,0.72,0.53,-0.73,0.37,
53206.3,43.02184561359496,1.10510477582693,2.7225758351198195,-0.65,0.38,0.79,0.46,-0.75,0.36,
53206.4,43.96316753829278,0.9360876142006398,2.703425319947385,-0.62,0.26,0.91,0.37,-0.85,0.30,
53206.5,42.669643776342916,0.9806795614923476,2.6273030040483656,-0.77,0.01,0.90,0.29,-0.84,0.30,
53206.6,43.01774750030503,0.9180263504791473,2.538959594191016,-0.67,-0.03,0.74,0.26,-0.89,0.29,
53206.7,42.048250855416086,0.9388917022551897,2.509732341135336,-0.69,0.05,0.53,0.16,-0.93,0.19,
53206.8,41.402499924521464,0.9366970797730931,2.4032259242785887,-0.44,0.19,0.48,0.09,-1.08,0.15,
53206.9,42.238206638066444,0.909170103417958,2.3983825153889824,-0.18,0.22,0.41,0.05,-1.01,0.05,
53207.0,41.998644025730165,0.8472365040225494,2.3583003863622904,0.02,0.10,0.32,0.05,-0.91,0.06,
53207.1,41.15946306744052,0.8216937313570973,2.338343891872458,0.19,-0.11,-0.10,0.01,-0.92,0.06,
53207.2,42.83192267456599,0.8146784957432265,2.351361030195333,0.42,-0.19,-0.35,0.01,-0.98,0.12,
53207.3,41.2442614190144,0.8304562127403051,2.44781238848337,0.61,-0.04,-0.48,0.08,-0.97,0.14,
53207.4,41.44367744300691,0.8339362242068387,2.483161223278972,0.86,-0.24,-0.59,0.11,-0.97,0.16,
53207.5,43.37838862844031,0.8886744170147967,2.598193657801722,1.05,-0.23,-0.79,0.15,-0.89,0.30,
53207.6,42.47364947823533,0.8815474739580664,2.698941090099486,1.06,-0.11,-0.73,0.29,-0.88,0.34,
53207.7,43.49973103365123,0.7578569196735317,2.779558184104714,0.88,-0.44,-0.66,0.39,-0.73,0.49,
53207.8,42.87588016589281,0.6356952550472406,2.8568965872203944,0.56,-0.20,-0.63,0.47,-0.65,0.46,
53207.9,42.75278821316804,0.6862172681595775,2.972077672555917,0.41,-0.72,-0.53,0.58,-0.65,0.53,
53208.0,43.7963628626853,0.29446204463410663,2.9955283510467465,0.27,-0.07,-0.33,0.55,-0.57,0.53,
53208.1,43.56206147555462,0.6552479986975747,3.0161926751246924,0.22,-0.21,-0.26,0.64,-0.52,0.48,
53208.2,43.43214247536034,0.18117450298708432,3.063566398445701,0.13,-0.14,-0.07,0.64,-0.55,0.49,
53208.3,44.49669650659474,0.12900921625937728,3.05764505038784,0.00,-0.05,-0.01,0.63,-0.51,0.49,
53208.4,43.994350773707296,0.42033106803544523,3.0428384573301677,-0.00,-0.19,-0.19,0.59,-0.49,0.47,
53208.5,44.384823982978695,0.06523394175231864,3.0966468111308116,-0.03,0.01,-0.14,0.68,-0.52,0.51,
53208.6,45.072906496031514,0.12478381098702965,3.07737493339405,-0.04,-0.06,-0.05,0.68,-0.48,0.47,
53208.7,45.7884450489422,0.7834787799579306,3.0610478902857032,0.09,-0.00,-0.04,0.62,-0.48,0.49,
53208.8,46.42759739637623,0.048469470710166856,3.083768274910983,0.03,-0.19,-0.20,0.65,-0.51,0.54,
53208.9,44.92877251828721,0.49058245640776293,3.078719748835564,0.06,-0.09,-0.10,0.70,-0.46,0.49,
53209.0,45.408471676549524,0.7281919262182878,3.1061785893370515,-0.11,-0.45,0.21,0.75,-0.47,0.52,
53209.1,43.97834580790869,0.9752409967717353,3.099830194796499,-0.08,0.21,0.23,0.64,-0.46,0.49,
53209.2,43.63414374088256,1.0478575632237248,3.0966071116823715,0.07,0.21,0.37,0.66,-0.48,0.47,
53209.3,43.16668159587901,0.21809653609100987,3.053685475954711,0.29,0.18,0.37,0.57,-0.48,0.48,
53209.4,44.503007763520884,6.047129288073121,3.0559762240948776,0.37,0.15,0.36,0.58,-0.47,0.51,
53209.5,44.51886791013446,5.79573267199371,3.0570861238186846,0.43,-0.04,0.48,0.56,-0.50,0.52,
53209.6,43.17083969533139,5.470455821829571,3.027466622895186,0.56,0.01,0.49,0.47,-0.45,0.55,
53209.7,42.64302287596413,5.178517973870797,2.9286659982222263,0.96,0.11,0.71,0.42,-0.45,0.58,
53209.8,45.09865740795396,4.980198660674652,2.8892152663079567,1.48,0.10,0.83,0.39,-0.48,0.64,
53209.9,45.04486430215991,4.9447921878437615,2.7226846420863113,1.75,0.32,0.87,0.41,-0.37,0.69,
53210.0,46.42573208900426,4.864235955381659,2.5579321936337194,1.75,0.21,0.78,0.34,-0.21,0.78,
53210.1,48.79473024825529,4.830376731964048,2.3736480330582275,1.67,0.38,0.50,0.34,-0.03,0.84,
53210.2,49.663960776402035,4.82485298633522,2.234630050057256,1.25,0.45,0.30,0.23,0.06,0.90,
53210.3,49.90078756893522,4.829057214538573,2.124738316099057,0.65,0.18,0.12,0.21,0.14,0.90,
53210.4,51.322900346726314,4.827777683004931,2.0512390842543575,0.48,0.29,0.15,0.25,0.23,0.87,
53210.5,52.7629443833454,4.798394310609261,2.0556136857146834,-0.06,-0.15,-0.08,0.19,0.29,0.94,
53210.6,52.48891502022117,4.821924885077576,2.061819171187526,-0.17,0.02,-0.21,0.24,0.15,0.85,
53210.7,52.37003246132276,4.849180272269759,2.069979889678133,-0.04,0.31,-0.08,0.24,0.19,0.88,
53210.8,53.583131674063246,4.859188542644822,2.0595782116421413,-0.02,0.46,-0.13,0.12,0.13,0.84,
53210.9,52.11661059585514,4.857566944350584,2.0726331060457834,0.01,0.19,0.02,0.20,0.15,0.88,
53211.0,52.92892592902297,4.850713107662574,2.0605881460269737,-0.03,-0.10,0.04,0.22,0.17,0.92,
53211.1,52.23498731693155,4.873451029071754,2.085850186437406,-0.02,0.08,0.01,0.19,0.15,0.87,
53211.2,52.16838410378455,4.841847486910215,2.0646719121980253,0.00,0.04,-0.00,0.18,0.16,0.88,
53211.3,52.4662253263945,4.858767556953843,2.0696315294001657,0.01,0.02,-0.00,0.20,0.16,0.89,
53211.4,52.386533574956076,4.86709213258203,2.0587538622234227,0.01,0.01,0.02,0.18,0.14,0.87,
53211.5,52.57453090613363,4.845026472566539,2.0713258356141684,0.01,-0.08,0.00,0.19,0.13,0.88,
53211.6,52.796799145402744,4.8585387432515414,2.0619227841671677,0.09,-0.05,0.02,0.18,0.16,0.92,
53211.7,50.766954803297,4.850116342122073,2.0757641313069044,-0.01,-0.04,-0.06,0.22,0.17,0.79,
53211.8,52.742417464503845,4.868399530967632,2.0583922835074624,-0.12,-0.01,-0.20,0.23,0.15,0.92,
53211.9,51.77884606670952,4.875700484073759,2.0628009507474623,0.06,-0.01,-0.05,0.15,0.15,0.87,
53212.0,52.165697541583775,4.888434246064623,2.0793448950411673,-0.01,-0.19,-0.02,0.23,0.18,0.85,
53212.1,51.64963310615091,4.858683598881381,2.0700871010537027,-0.02,0.06,-0.11,0.22,0.15,0.88,
53212.2,52.88983361667911,4.873168873276908,2.0609822314720105,-0.03,-0.10,-0.04,0.22,0.16,0.87,
53212.3,53.63286026308871,4.8875194007189275,2.08202855402555,-0.05,-0.01,-0.05,0.24,0.15,0.89,
53212.4,52.45414187650009,4.8947939919164964,2.075192937691263,-0.00,0.01,-0.02,0.21,0.15,0.89,
53212.5,52.7754621012455,4.897337755363331,2.076594090442416,0.03,0.02,0.02,0.23,0.16,0.87,
53212.6,51.989879784434976,4.882341813589179,2.088742056393983,-0.04,-0.08,0.02,0.26,0.16,0.87,
53212.7,51.824488420051004,4.873033838186598,2.079480500975465,-0.18,-0.23,-0.09,0.22,0.13,0.86,
53212.8,51.9752681570764,4.8640893334501065,2.1000108844547443,-0.12,0.02,-0.07,0.25,0.16,0.89,
53212.9,50.7994261778615,4.8936135660080815,2.1302398716218267,-0.03,0.04,-0.00,0.23,0.14,0.88,
53213.0,52.343994880024205,4.888020225236791,2.1181197775453393,-0.06,-0.02,0.00,0.28,0.13,0.88,
53213.1,52.294345774662865,4.880520744741166,2.1186984810651204,-0.16,-0.01,-0.06,0.26,0.12,0.89,
53213.2,50.927953031709414,4.898166729780853,2.140741387557565,-0.19,0.04,-0.16,0.26,0.14,0.87,
53213.3,52.03031712376929,4.9106757261674305,2.1333438757032206,-0.28,0.16,-0.17,0.23,0.13,0.94,
53213.4,51.1298914530434,4.942757074801461,2.1776821807427322,-0.73,-0.04,-0.49,0.19,0.09,0.91,
53213.5,49.56224066766958,4.958915031057958,2.2798298222144022,-1.10,-0.23,-0.45,0.26,-0.03,0.94,
53213.6,49.608065876427794,5.002724913635346,2.357386830800326,-1.23,0.11,-0.41,0.23,-0.14,0.89,
53213.7,47.86279348303857,5.092895357497055,2.4700500349690087,-1.13,0.25,-0.31,0.23,-0.25,0.85,
53213.8,46.75684014130981,5.216036682298335,2.576181584867604,-1.08,0.17,-0.33,0.26,-0.30,0.78,
53213.9,46.07974609305047,5.349964101586328,2.6286731702253308,-0.65,-0.02,-0.30,0.21,-0.40,0.71,
53214.0,45.11312558446821,5.428894592020928,2.676440201378955,-0.46,0.15,-0.33,0.25,-0.41,0.75,
53214.1,45.731841205007264,5.5382360042472145,2.7074840932679995,-0.50,-0.15,-0.26,0.29,-0.45,0.78,
53214.2,44.94541244665577,5.5686968969599215,2.766468215840746,-0.63,-0.08,-0.41,0.25,-0.46,0.73,
53214.3,44.351565925004266,5.778914697215079,2.81031063804417,-0.59,-0.21,-0.54,0.29,-0.50,0.71,
53214.4,44.30436208772224,5.924500591868403,2.829194651346416,-0.64,-0.46,-0.71,0.36,-0.57,0.63,
53214.5,44.14147256265925,0.15097224504611134,2.913681972026379,-0.57,-0.41,-0.48,0.46,-0.60,0.61,
53214.6,43.245089894692086,0.35986489475786926,2.917105363093924,-0.29,0.05,-0.39,0.47,-0.62,0.64,
53214.7,42.878734822753344,0.385481460443219,2.8863913758231146,-0.42,-0.01,-0.48,0.50,-0.58,0.54,
53214.8,43.181895511892485,0.5739190277247074,2.902156905999065,-0.06,-0.32,-0.20,0.57,-0.57,0.48,
53214.9,43.60302856453895,0.6753791042300936,2.915160545092991,0.09,-0.12,-0.12,0.51,-0.59,0.51,
53215.0,43.53273825524877,0.5836358190771612,2.9059805619215444,0.05,-0.12,-0.21,0.52,-0.55,0.56,
53215.1,43.67061254436443,0.6131331814044977,2.953453537127304,0.05,-0.10,-0.18,0.55,-0.55,0.48,
53215.2,43.62654352570233,0.4980924893013095,2.995215442163645,0.19,-0.39,0.03,0.61,-0.49,0.49,
53215.3,44.34843965688083,0.5289825955560467,3.016156024585869,0.13,-0.47,-0.01,0.61,-0.47,0.48,
53215.4,42.972221259785954,0.6165889366091077,3.0602116186887005,0.15,-0.37,-0.16,0.61,-0.48,0.43,
53215.5,43.514420598233876,0.8253768505207383,3.0520268030386704,0.15,-0.58,-0.08,0.71,-0.49,0.44,
53215.6,44.12426656614249,1.8202095506529439,3.091992052590689,0.06,0.05,-0.05,0.72,-0.49,0.47,
53215.7,45.85518400355624,1.9108934463046592,3.126555781184849,0.10,0.07,0.14,0.78,-0.46,0.51,
53215.8,44.89403746601546,4.9130418577045765,3.1281811225142633,-0.01,0.23,0.10,0.76,-0.40,0.49,
53215.9,43.48750625179604,0.17809293823119754,3.0948463072393078,-0.39,0.71,0.50,0.71,-0.55,0.54,
53216.0,43.6539814908102,0.5394921435039661,3.0141580860663244,-0.66,0.79,0.83,0.57,-0.61,0.55,
53216.1,42.70100935575177,0.4193995427134034,2.9171504644941284,-0.79,0.78,1.04,0.46,-0.68,0.51,
53216.2,43.95362214880589,0.5211381434841182,2.8983765420222642,-0.73,0.89,1.12,0.35,-0.77,0.44,
53216.3,42.52597441564391,0.5883122969411971,2.7068420263919357,-0.79,0.53,1.01,0.20,-0.82,0.38,
53216.4,41.0517794985796,0.5604384706014668,2.659869480699639,-0.62,0.58,0.98,0.06,-0.92,0.36,
53216.5,41.608924523472126,0.4821640110688152,2.557469643332157,-0.53,0.34,0.97,-0.02,-0.91,0.32,
53216.6,41.07883761743996,0.40433687538002683,2.455353310967218,-0.45,0.47,0.93,-0.11,-0.94,0.28,
53216.7,41.4889141819836,0.3853246217643881,2.4336802912215565,-0.37,0.49,0.72,-0.22,-0.93,0.22,
53216.8,41.4904832461614,0.3535263212506957,2.382159707028416,-0.27,0.25,0.57,-0.23,-0.91,0.19,
53216.9,40.606799923165575,0.30067387378310245,2.3316496095619126,-0.25,0.15,0.43,-0.32,-0.90,0.17,
53217.0,43.07649939352083,0.24330921559601026,2.3055914605673427,-0.07,0.15,0.29,-0.36,-0.88,0.14,
53217.1,42.44420926345548,0.28209749150734814,2.293712614006292,-0.03,0.12,0.11,-0.41,-0.89,0.11,
53217.2,41.697527504637485,0.22399258257529042,2.2748077284781187,0.05,-0.15,-0.06,-0.39,-0.87,0.12,
53217.3,41.83567018705449,0.2643470761078839,2.2960289731530925,0.14,-0.16,-0.23,-0.35,-0.89,0.16,
53217.4,40.94725631834201,0.3044274192633648,2.340972279641646,0.25,-0.25,-0.32,-0.36,-0.91,0.15,
53217.5,40.72710276953174,0.30026926213645544,2.3894493953405966,0.41,-0.31,-0.51,-0.29,-0.92,0.20,
53217.6,41.43016292509601,0.3427781918755669,2.4198580356986548,0.51,-0.41,-0.57,-0.21,-0.90,0.27,
53217.7,42.67807399590568,0.3502434608558683,2.5003420099386973,0.65,-0.56,-0.82,-0.15,-0.87,0.32,
53217.8,41.30905106632202,0.29701621894497093,2.627036818196401,0.73,-0.72,-0.98,0.00,-0.85,0.42,
53217.9,42.63540664752713,0.3184556734040542,2.674585758480174,0.77,-0.51,-0.97,0.12,-0.82,0.46,
53218.0,42.66537003238106,0.2508562761415674,2.775626276454632,0.70,-0.59,-0.89,0.22,-0.78,0.52,
53218.1,42.13987422857358,0.23986119453262134,2.833057141270424,0.66,-0.38,-0.74,0.29,-0.74,0.54,
53218.2,42.299627657935716,0.17209033220816466,2.834445172789746,0.73,-0.07,-0.63,0.35,-0.65,0.59,
53218.3,42.95533028624038,6.134539460460277,2.854728675763523,0.44,-0.53,-0.72,0.42,-0.62,0.61,
53218.4,43.53588864373851,6.067419110772544,2.8988958462796104,0.18,-0.34,-0.71,0.51,-0.50,0.60,
53218.5,44.459028329463074,6.117405715022174,2.904951955219933,0.15,-0.53,-0.51,0.53,-0.54,0.63,
53218.6,43.26000809061413,5.8641643463816004,2.9338641033565196,0.14,-0.30,-0.27,0.62,-0.47,0.60,
53218.7,44.15606640089219,6.009504948081805,2.958747500196637,0.01,-0.31,-0.11,0.64,-0.46,0.60,
53218.8,44.18989364096728,6.062553129846132,3.0036280558537287,0.03,-0.09,0.06,0.64,-0.44,0.58,
53218.9,45.006926133651916,5.924585081768451,2.9884222637107873,0.03,0.04,0.01,0.63,-0.48,0.55,
53219.0,44.30622755324583,6.102298444896943,3.0044133469448897,0.08,0.06,0.01,0.63,-0.45,0.54,
53219.1,44.42678809007016,5.991068621019756,2.9774996841569648,0.16,-0.17,-0.10,0.60,-0.42,0.50,
53219.2,45.15948294655288,6.042595789239818,2.9942249357365958,0.01,0.37,0.10,0.65,-0.44,0.56,
53219.3,45.05054716648845,6.000910513833055,3.0185579702907184,0.17,-0.23,-0.05,0.71,-0.36,0.57,
53219.4,44.625389634153336,5.923549285792374,2.9894641140200324,-0.02,0.11,-0.18,0.69,-0.39,0.66,
53219.5,44.472701739381655,5.8112391334941105,2.9956617504123724,-0.05,0.08,-0.14,0.68,-0.35,0.60,
53219.6,44.188742910383866,5.9197336724851475,2.9882153718251034,-0.01,0.49,0.27,0.68,-0.37,0.60,
53219.7,43.885689011339444,6.0542331463470305,2.9822878875395737,0.13,0.59,0.54,0.56,-0.38,0.60,
53219.8,43.52792781651798,5.932167303382722,2.9035012583321866,0.36,0.66,0.71,0.46,-0.43,0.63,
53219.9,44.23514552931865,5.727481001270703,2.821623782808063,0.64,0.51,0.93,0.43,-0.45,0.71,
53220.0,42.850943980267225,5.614702758264495,2.7846482389268847,0.74,0.59,1.09,0.34,-0.45,0.66,
53220.1,43.53177919635263,5.4784437951593015,2.661469938063735,0.78,0.27,1.08,0.29,-0.44,0.74,
53220.2,44.21199610965331,5.339464824428246,2.6037516249866544,0.89,-0.09,0.81,0.20,-0.39,0.79,
53220.3,46.75724649720084,5.156111690311353,2.5217871905515885,1.00,-0.13,0.79,0.23,-0.32,0.84,
53220.4,47.12010611193485,5.065124720903634,2.4227145157696635,1.04,-0.15,0.78,0.22,-0.24,0.86,
53220.5,48.37522196331506,4.963762781226544,2.3583470614012447,1.04,-0.14,0.57,0.23,-0.10,0.83,
53220.6,49.78431982060215,4.887708681899978,2.2584657513835165,0.95,-0.14,0.45,0.26,0.01,0.91,
53220.7,50.0107918353629,4.859133618970544,2.1549348694981045,0.73,-0.06,0.31,0.18,0.09,0.96,
53220.8,51.541739396337796,4.813383073723113,2.13542279249907,0.34,-0.14,0.04,0.22,0.11,0.96,
53220.9,52.052662756097305,4.85550757101172,2.0915949136815692,0.34,-0.10,-0.11,0.24,0.25,1.03,
53221.0,52.433010594471874,4.851257538830831,2.098661587076834,-0.03,0.01,0.09,0.26,0.11,0.95,
53221.1,51.52029697119379,4.885238971423018,2.1108316529765037,0.10,0.42,-0.13,0.12,0.15,0.81,
53221.2,51.36773890293401,4.8503272274831435,2.087801683419671,0.07,-0.02,-0.05,0.20,0.12,0.86,
53221.3,53.63524680655437,4.880853707820792,2.050005303255194,-0.04,-0.11,0.06,0.19,0.15,0.86,
53221.4,51.892971585755234,4.867248678750193,2.089806529476491,-0.07,-0.18,0.01,0.25,0.16,0.87,
53221.5,51.27065242416952,4.868421268810775,2.081709130666801,-0.03,-0.00,0.04,0.25,0.14,0.89,
53221.6,52.058929109231585,4.843816031585131,2.0879864047364736,-0.01,-0.03,0.03,0.22,0.13,0.87,
53221.7,52.685041520340484,4.859886474257705,2.1009273331047877,-0.00,-0.04,0.02,0.24,0.14,0.88,
53221.8,53.32254495051788,4.841847486910215,2.1034866392638563,0.01,-0.04,0.01,0.24,0.13,0.87,
53221.9,52.90291957916878,4.868232604436572,2.089785732425271,0.01,-0.02,0.02,0.24,0.13,0.87,
53222.0,51.56114234576266,4.835830960576912,2.087453781834575,0.00,-0.05,0.01,0.24,0.14,0.87,
53222.1,51.64836589864194,4.8512063578267,2.1188456790149774,0.00,-0.02,0.00,0.25,0.14,0.88,
53222.2,53.771821616902656,4.862825484595968,2.113703668008391,0.01,-0.01,0.01,0.24,0.14,0.86,
53222.3,53.56269317351397,4.8513060523241895,2.089844869659438,-0.00,-0.02,0.02,0.25,0.13,0.87,
53222.4,53.110286197684914,4.846008487452123,2.10212758264833,-0.01,-0.06,0.02,0.26,0.14,0.87,
53222.5,51.11716932694924,4.825953537571311,2.1169390875442753,-0.00,-0.03,0.01,0.26,0.14,0.88,
53222.6,52.40806140280329,4.837296842877885,2.113805203308684,-0.02,-0.07,0.02,0.26,0.13,0.86,
53222.7,52.62973779148059,4.835742784660932,2.084443666783222,-0.00,-0.14,0.03,0.24,0.11,0.85,
53222.8,51.652472351282476,4.7903109574038645,2.0700571226164444,-0.03,-0.13,0.03,0.30,0.11,0.88,
53222.9,50.50720542655276,4.818506024982483,2.121040866477716,-0.16,-0.03,-0.13,0.29,0.11,0.96,
53223.0,50.961185229545045,4.835541088582989,2.125942825935197,-0.32,0.07,0.02,0.26,0.12,0.99,
53223.1,52.9855508605884,4.827995785520554,2.1633174248208378,-0.86,0.34,-0.19,0.22,0.08,0.92,
53223.2,51.02025774141091,4.89380416552914,2.2555650181360463,-1.33,-0.01,-0.32,0.22,-0.05,0.92,
53223.3,48.79111496983852,4.847730531586282,2.374315083064902,-1.59,0.13,-0.44,0.18,-0.20,0.87,
53223.4,45.921744304849746,4.99003343057272,2.5062147516498947,-1.38,0.31,-0.36,0.20,-0.30,0.83,
53223.5,45.95282037046257,5.091608025561431,2.6513299233040786,-1.19,0.44,-0.36,0.22,-0.39,0.73,
53223.6,45.98770487858684,5.302414410244178,2.711006273373089,-1.15,0.03,-0.43,0.25,-0.45,0.67,
53223.7,45.43393775582302,5.531195992535877,2.7796310266713866,-0.76,-0.04,-0.39,0.24,-0.58,0.67,
53223.8,41.55815323134559,5.636090323472793,2.8704638104780873,-0.57,0.03,-0.33,0.26,-0.59,0.65,
53223.9,45.16491337310413,5.850777531609048,2.8555679101902993,-0.54,0.01,-0.55,0.25,-0.63,0.61,
53224.0,43.58622947675102,6.09730519072514,2.9009218071751577,-0.49,-0.21,-0.75,0.32,-0.63,0.56,
53224.1,43.53196067259089,0.16482368555086555,2.907041366256374,-0.54,-0.29,-0.74,0.40,-0.66,0.52,
53224.2,43.42098340664339,0.39360826469896093,2.884148839914337,-0.52,-0.25,-0.69,0.44,-0.68,0.49,
53224.3,42.583506196648486,0.753391227209629,2.916576771142494,-0.53,-0.24,-0.80,0.54,-0.67,0.43,
53224.4,42.48679441897212,1.124913346287613,2.89007662633501,-0.53,-0.29,-0.68,0.60,-0.73,0.36,
53224.5,42.72228107205888,1.3427488914833137,2.8420560387413305,-0.17,-0.30,-0.20,0.62,-0.65,0.33,
53224.6,42.665948952296844,1.4236589464980514,2.8463612678352272,-0.14,-0.14,-0.12,0.59,-0.59,0.39,
53224.7,43.577175218226344,1.5631256264784428,2.806262413324574,-0.10,-0.20,-0.23,0.63,-0.61,0.31,
53224.8,44.10586468940383,1.5064408751476341,2.8298511369474246,-0.20,-0.30,-0.17,0.66,-0.62,0.30,
53224.9,43.3197460749714,1.8253277528964682,2.8071819095422437,0.14,-0.51,-0.09,0.66,-0.57,0.32,
53225.0,44.26069362312344,1.8451200662876606,2.8322640404366077,0.08,-0.14,-0.18,0.73,-0.59,0.30,
53225.1,43.94105711063401,1.8914295632207379,2.8136989831844046,0.05,-0.18,-0.05,0.78,-0.58,0.28,
53225.2,43.87221216214199,1.8780950312342968,2.8219509693647034,-0.00,-0.12,0.07,0.73,-0.55,0.25,
53225.3,44.65021612489686,1.918587108124565,2.803329623002103,-0.16,-0.21,-0.01,0.73,-0.62,0.25,
53225.4,44.422540449641104,1.9366762522922165,2.797594989095419,-0.26,-0.29,0.46,0.83,-0.67,0.22,
53225.5,45.47166370389366,1.9125961809563043,2.7575854405553453,-0.39,-0.09,1.03,0.71,-0.75,0.19,
53225.6,43.87904397317699,1.7620191255399964,2.7555605918885977,-0.42,0.19,1.31,0.58,-0.79,0.16,
53225.7,43.144828195277356,1.6696642962074566,2.694820046146563,-0.33,0.23,1.32,0.43,-0.83,0.13,
53225.8,42.69287294151098,1.4785412538545413,2.6576329207663463,-0.20,0.05,1.16,0.33,-0.87,0.10,
53225.9,42.93154667607492,1.392703388563699,2.635025646414963,-0.38,0.20,1.00,0.24,-0.91,0.07,
53226.0,41.81055967097308,1.2130133105241727,2.6062028132704294,-0.22,0.27,0.61,0.17,-0.90,0.06,
53226.1,43.23987395911325,1.1054367164231276,2.5667385583900004,0.08,0.28,0.41,0.09,-0.97,0.10,
53226.2,42.089278919933996,1.1081158354809646,2.5600290161968626,-0.07,0.27,0.42,0.09,-1.00,0.08,
53226.3,41.83391088578738,0.9977616148286663,2.5387613723990263,-0.11,0.26,0.56,0.00,-1.01,0.05,
53226.4,43.11432940450309,0.9525898296201079,2.489196510759846,-0.10,0.01,0.41,-0.03,-0.99,0.05,
53226.5,40.51055294611516,0.9313341014141506,2.4993910010256064,-0.01,0.05,0.33,-0.06,-0.99,0.02,
53226.6,42.616248075118015,0.8665855993580052,2.498756748207904,0.13,-0.23,0.20,-0.11,-0.99,0.06,
53226.7,42.36753120020094,0.8910511016205235,2.5022720861857644,0.09,0.02,0.20,-0.12,-1.06,0.06,
53226.8,42.68987467772657,0.8674250971624794,2.5226267179990938,0.01,0.10,0.31,-0.14,-1.02,0.04,
53226.9,42.658877153530426,0.8843858211966819,2.4912038181160736,0.10,0.03,0.25,-0.21,-0.94,0.02,
53227.0,42.16410084420158,0.7825046529541685,2.523372373564081,0.21,-0.03,0.03,-0.17,-0.95,0.06,
53227.1,41.71773004371163,0.770671244990257,2.5423942754807873,0.21,-0.11,-0.13,-0.16,-0.93,0.07,
53227.2,42.35901556929764,0.7343696690621272,2.555515181964208,0.25,-0.16,-0.49,-0.18,-0.97,0.11,
53227.3,42.78692323596077,0.8651777102920143,2.591731226447297,0.33,-0.27,-0.66,-0.08,-0.98,0.16,
53227.4,42.185682405290066,0.9011247530940606,2.6469879911886927,0.39,-0.14,-0.75,0.00,-0.93,0.17,
53227.5,42.133718088960535,1.0134942470462793,2.6792446791201305,0.45,-0.09,-0.93,0.10,-0.92,0.18,
53227.6,42.315135589999,0.9756426726858254,2.7364761599624727,0.53,-0.57,-1.24,0.24,-0.89,0.25,
53227.7,41.78181063573,1.204260843000454,2.7840831971347226,0.52,-0.29,-1.20,0.38,-0.83,0.27,
53227.8,42.76189659030572,1.3828732271424502,2.8820780930607715,0.38,-0.36,-0.96,0.51,-0.81,0.33,
53227.9,41.90107158534254,1.5777007049983722,2.93267806910027,0.29,-0.32,-0.78,0.53,-0.75,0.36,
53228.0,43.93863220447355,1.6961203132864433,2.995410433127205,0.21,-0.14,-0.60,0.63,-0.65,0.32,
53228.1,42.74590389733267,1.6185476103595646,3.00887614858095,0.24,0.09,-0.58,0.60,-0.70,0.36,
53228.2,43.26436408870468,1.9698572753710306,2.9742502436722487,0.12,-0.15,-0.31,0.71,-0.61,0.38,
53228.3,44.56805245913265,1.7239391776670585,3.0028851745363627,0.09,0.18,-0.16,0.61,-0.57,0.32,
53228.4,44.29770761563176,1.8777696317840467,2.9961491086546213,0.04,0.05,-0.15,0.70,-0.58,0.36,
53228.5,43.782376591500835,2.047956626809031,3.027957325284302,0.02,0.02,-0.14,0.72,-0.55,0.36,
53228.6,45.22946274277421,2.0566285129503186,3.0119664038663814,0.04,-0.08,-0.10,0.73,-0.56,0.36,
53228.7,45.11421283808463,2.1544072150550804,3.0011461742231393,0.03,-0.08,-0.12,0.71,-0.54,0.35,
53228.8,44.26115678560605,2.1934671155519636,3.032908044534051,0.07,0.03,-0.11,0.72,-0.50,0.37,
53228.9,46.09802273416941,2.309371595283251,3.006819766101382,-0.01,-0.33,-0.10,0.74,-0.48,0.35,
53229.0,43.88168068795907,2.278640738253113,2.982857429127747,0.06,-0.16,-0.13,0.76,-0.46,0.33,
53229.1,44.272340123377255,2.5987459736195357,3.01356504913733,0.03,0.02,-0.23,0.78,-0.49,0.30,
53229.2,44.36889563647038,2.3896392637652193,3.012551329377194,0.14,-0.02,-0.24,0.72,-0.47,0.31,
53229.3,45.39904294145417,2.6364594267196857,3.0105836798046473,-0.15,-0.15,-0.18,0.82,-0.43,0.37,
53229.4,45.56827514839683,2.6705259968226214,2.9553193234737094,-0.30,-0.10,0.04,0.79,-0.40,0.25,
53229.5,43.84676612932817,2.5781726092119954,2.944745398579855,-0.06,0.12,0.26,0.84,-0.45,0.24,
53229.6,45.375668590115566,2.4319882670901,2.9448156810686075,0.19,0.43,0.40,0.71,-0.41,0.38,
53229.7,43.29977136198296,2.2836641999295964,2.9694768344312887,0.75,0.41,0.62,0.68,-0.42,0.28,
53229.8,42.93397139795013,3.0375921388244675,3.071984664136687,0.92,0.23,0.35,0.58,-0.77,0.38,
53229.9,44.51081778624159,3.692397537144882,3.037523387595808,1.13,-0.37,0.48,0.72,-0.51,0.38,
53230.0,44.61284232146613,4.115053314501971,2.9539812139069155,1.16,-0.05,0.24,0.63,-0.52,0.40,
53230.1,46.2619076562997,4.2777395587146065,2.798133403867138,1.58,-0.01,0.49,0.58,-0.61,0.43,
53230.2,45.48078935110956,4.3622880683855305,2.7195479824928905,1.60,0.30,0.52,0.54,-0.55,0.58,
53230.3,45.561445323870046,4.416375808340337,2.5492747095206916,1.71,0.50,0.47,0.49,-0.29,0.66,
53230.4,49.24961421168698,4.588544711023348,2.379593703152719,1.54,1.32,-0.28,0.35,-0.21,0.72,
53230.5,50.151196396496864,4.729619650922172,2.2724062789265473,1.34,-0.22,-0.51,0.36,-0.02,0.91,
53230.6,51.35257247694608,4.743606487568971,2.1848833828281276,0.22,-0.86,-0.55,0.43,0.16,0.79,
53230.7,52.23398893440937,4.706364956868519,2.1690917357441477,-0.37,-0.49,-0.20,0.53,0.10,0.80,
53230.8,52.40338634096083,4.70293299745686,2.202138862083674,-0.27,-0.10,-0.10,0.51,0.12,0.69,
53230.9,52.927454123545374,4.702854108439784,2.2264815047565594,-0.22,-0.10,-0.01,0.51,0.13,0.72,
53231.0,52.78154696482474,4.656449334082649,2.2370167205901064,-0.18,-0.09,-0.03,0.58,0.09,0.72,
53231.1,52.0865155294535,4.677173192945642,2.2473041167400494,0.01,-0.05,0.05,0.59,0.13,0.72,
53231.2,51.286174550262565,4.657412587246865,2.268263432543271,0.04,-0.15,0.02,0.63,0.08,0.70,
53231.3,52.83360105084642,4.669526951147306,2.243965424912364,-0.05,-0.15,-0.02,0.60,0.09,0.70,
53231.4,52.77129522761403,4.6565100196977935,2.257094531970932,-0.04,-0.10,-0.00,0.62,0.08,0.67,
53231.5,51.34456738545959,4.662468150873175,2.252172055440378,0.02,0.04,0.01,0.60,0.13,0.68,
53231.6,51.830441827173345,4.646847850438061,2.255255276917095,0.04,-0.12,0.01,0.63,0.09,0.66,
53231.7,52.286837731880475,4.626720356475511,2.2679464722209004,0.09,0.09,0.02,0.61,0.10,0.68,
53231.8,52.37712286867235,4.656514994071478,2.2312000708834767,-0.05,-0.05,-0.02,0.60,0.08,0.65,
53231.9,52.14335624027283,4.6565100196977935,2.242258021764535,0.04,0.11,-0.00,0.59,0.11,0.69,
53232.0,52.492461363513904,4.638847974258776,2.2503825086557914,0.01,0.09,0.01,0.60,0.12,0.69,
53232.1,51.32042478390061,4.6565100196977935,2.2218143740590763,0.06,0.17,-0.00,0.61,0.11,0.69,
53232.2,52.54771641089649,4.666798811779081,2.2522255174068473,0.03,0.13,0.02,0.59,0.11,0.69,
53232.3,52.2417505449425,4.69455094976386,2.2240223750267223,-0.02,0.17,-0.05,0.58,0.14,0.73,
53232.4,52.86954321724371,4.727288142182729,2.2354686478033163,-0.25,0.18,-0.16,0.55,0.16,0.75,
53232.5,51.08846934485315,4.72844379751621,2.2464220950272216,-0.69,0.30,-0.31,0.53,0.10,0.77,
53232.6,49.06184872179196,4.760707242507361,2.310746328388893,-0.98,0.00,-0.35,0.48,0.03,0.75,
53232.7,49.671747502982015,4.80395344780525,2.4141892182741165,-1.27,-0.13,-0.28,0.54,-0.04,0.79,
53232.8,47.87962510296003,4.846892141397987,2.5908516940653445,-1.43,0.05,-0.21,0.51,-0.11,0.73,
53232.9,46.6724265493021,4.884144017617423,2.7068049508565273,-1.41,0.06,-0.30,0.52,-0.18,0.65,
53233.0,46.71880777588401,5.040164809882322,2.8097500249036793,-1.33,-0.13,-0.39,0.55,-0.29,0.64,
53233.1,46.28428891103329,5.061507900802432,2.9277443217342003,-1.05,-0.17,-0.37,0.58,-0.39,0.58,
53233.2,44.5522906257355,5.299921438221716,3.008791108002789,-0.70,-0.17,-0.29,0.62,-0.40,0.53,
53233.3,46.29980345530637,5.778829862045667,3.072708504981476,-0.44,0.00,-0.19,0.63,-0.44,0.57,
53233.4,44.829470217703886,0.2957939860401633,3.0626909112234,-0.34,0.02,-0.20,0.60,-0.42,0.53,
53233.5,44.22471028734954,0.4284862270457779,3.040742157268577,-0.30,-0.11,-0.16,0.66,-0.46,0.46,
53233.6,45.3161538526826,0.8653190995414494,3.073131979369584,-0.13,-0.18,-0.05,0.65,-0.44,0.50,
53233.7,44.4758069066768,1.5182132651839548,3.043041544948631,-0.27,-0.18,-0.13,0.66,-0.49,0.52,
53233.8,45.136005583126206,1.373400766945016,3.0090297126520733,-0.39,-0.13,-0.02,0.67,-0.51,0.46,
53233.9,43.68423743182431,1.478494854201431,2.989506809193917,-0.20,-0.27,-0.06,0.66,-0.46,0.40,
53234.0,44.39372140291913,1.596749865855051,2.94059703252527,-0.20,-0.20,-0.24,0.65,-0.51,0.42,
53234.1,44.4070287229398,1.6694275156813316,2.945964680985048,-0.07,-0.13,-0.07,0.72,-0.56,0.43,
53234.2,45.29822733838489,1.7174497831224025,2.950073100255715,-0.10,-0.14,0.07,0.71,-0.48,0.39,
53234.3,44.70858642363903,1.832275142507146,2.9430172029823187,-0.10,-0.25,0.07,0.72,-0.48,0.42,
53234.4,43.93473682634278,1.705359329223872,2.938300684105534,0.01,0.25,0.13,0.65,-0.53,0.37,
53234.5,43.28350263091008,1.5789928645448092,2.9716526340540472,-0.00,-0.05,0.10,0.68,-0.46,0.36,
53234.6,45.13533095037634,1.7135316041700532,2.9535872116205377,0.10,0.13,0.18,0.66,-0.55,0.38,
53234.7,44.83529413308226,1.5286526202012993,2.9928151752781025,0.11,0.10,0.04,0.68,-0.44,0.38,
53234.8,45.3735793166023,1.5583816147532286,2.9450467880813793,0.06,-0.02,-0.06,0.65,-0.52,0.37,
53234.9,43.23294114445604,1.8254617212099997,2.990438996821744,0.12,-0.41,0.12,0.75,-0.44,0.34,
53235.0,44.13211302441795,1.8423378589084276,2.9983301268619247,0.09,-0.18,-0.09,0.68,-0.53,0.35,
53235.1,44.521874398996275,1.9912016779976396,3.0157845655909528,0.07,-0.22,-0.06,0.72,-0.50,0.38,
53235.2,45.4251318104857,2.0436744428641807,2.9809129408792074,0.07,0.13,-0.02,0.71,-0.44,0.34,
53235.3,45.58192953353335,2.2479238993318886,2.9830138793820344,0.03,-0.21,0.06,0.81,-0.45,0.33,
53235.4,44.49471878773929,2.223781442869166,2.989339839370963,-0.09,-0.14,0.22,0.73,-0.58,0.34,
53235.5,44.76778082505319,2.1031514857587137,2.9793682284668033,-0.03,0.29,0.39,0.70,-0.55,0.37,
53235.6,44.68100379355863,2.0336322476622715,3.017966675780235,-0.10,0.35,0.51,0.70,-0.62,0.37,
53235.7,42.9722945628925,1.8777696317840467,2.9916297174309694,-0.19,0.46,0.64,0.64,-0.63,0.39,
53235.8,42.84396223506878,1.3757049103328203,2.9416002374693546,-0.22,0.36,0.65,0.53,-0.67,0.36,
53235.9,43.425037708676776,1.5079421663693253,2.9758576257029037,-0.28,0.34,0.68,0.50,-0.76,0.39,
53236.0,43.166410552650774,1.1108167435261098,2.9136663343987297,-0.36,0.24,0.74,0.45,-0.81,0.38,
53236.1,42.767228107512416,1.0354096915021103,2.825618590158727,-0.40,0.42,0.91,0.33,-0.85,0.36,
53236.2,41.727478955719334,1.0270017712937263,2.7544947193007103,-0.45,0.29,0.92,0.24,-0.85,0.28,
53236.3,42.07225570372951,0.9470385961785894,2.7539117102146,-0.13,0.25,0.75,0.15,-0.89,0.32,
53236.4,42.315238389970105,0.9169687580199425,2.7119838419272626,-0.15,0.30,0.65,0.07,-0.98,0.28,
53236.5,42.03682909069141,0.8240705363463159,2.7059190723315574,-0.14,0.27,0.64,0.03,-0.91,0.29,
53236.6,40.996279099449985,0.7367474448677256,2.7136914373646195,-0.19,0.24,0.60,-0.07,-0.92,0.25,
53236.7,42.39201929608921,0.7248760329536452,2.6061983805901674,-0.16,0.17,0.54,-0.10,-0.93,0.25,
53236.8,43.13333513652753,0.6363457620886849,2.619174499025298,-0.05,0.04,0.47,-0.16,-0.94,0.23,
53236.9,42.27002129169088,0.5726192017669723,2.6190873068638654,-0.03,-0.03,0.39,-0.21,-0.94,0.23,
53237.0,43.257837440168,0.5325444661878299,2.584627955977965,0.01,0.05,0.19,-0.25,-0.91,0.20,
53237.1,43.499567813945006,0.4812039920121736,2.6137916097411833,0.01,-0.03,0.12,-0.25,-0.90,0.21,
53237.2,41.683471544486316,0.5334069924992575,2.6194858320794725,0.06,-0.03,-0.07,-0.25,-0.92,0.23,
53237.3,42.053839301542965,0.5428026003693082,2.6223048057696214,0.04,-0.10,-0.23,-0.22,-0.89,0.24,
53237.4,41.13373433083848,0.5477186407142813,2.6346266639972376,0.14,-0.14,-0.48,-0.20,-0.89,0.24,
53237.5,41.70771751127122,0.6055119378792887,2.6598026814090443,0.21,-0.25,-0.82,-0.11,-0.93,0.25,
53237.6,41.90572395270126,0.6140501044864941,2.7173028949445555,0.26,-0.24,-0.95,0.00,-0.90,0.27,
53237.7,41.10742633636895,0.8578554683409279,2.759302910501312,0.36,-0.48,-1.13,0.11,-0.88,0.33,
53237.8,43.63221860047916,0.8825172038558609,2.8131574496275116,0.50,-0.36,-1.12,0.22,-0.88,0.33,
53237.9,42.839110635026024,1.0538294776222306,2.8310480505837936,0.51,-0.57,-1.13,0.39,-0.81,0.36,
53238.0,42.57204364368711,1.1815328757905994,2.9308306219984277,0.39,-0.36,-0.95,0.49,-0.74,0.41,
53238.1,43.31476191784967,1.0985282416819542,2.960954757029288,0.34,-0.36,-0.88,0.53,-0.65,0.41,
53238.2,43.47405318117923,1.350463834940438,3.0213209896120605,0.44,-0.05,-0.76,0.61,-0.68,0.44,
53238.3,43.29632547919049,1.6877208753793167,3.0682723614061156,0.27,-0.19,-0.48,0.71,-0.55,0.43,
53238.4,44.24707108950828,2.1662062022736293,3.0907968883963384,0.25,0.12,-0.34,0.63,-0.52,0.40,
53238.5,45.02063860053519,0.13322675164037845,3.119852631758006,0.20,-0.02,-0.33,0.66,-0.52,0.46,
53238.6,45.31347812737398,3.2566886534744315,3.1031504194681743,0.12,0.06,-0.20,0.73,-0.49,0.46,
53238.7,45.05876496310124,2.1177623783858155,3.0950642146706344,-0.01,-0.02,-0.20,0.69,-0.39,0.42,
53238.8,44.363243794835384,3.050932766389048,3.109220183999458,0.02,-0.05,-0.24,0.70,-0.44,0.42,
53238.9,45.34376583390488,2.356194490192345,3.116951079017805,-0.01,-0.07,-0.17,0.76,-0.44,0.43,
53239.0,45.223228544631795,3.3350199803006406,3.0978652063904843,0.08,0.07,0.04,0.73,-0.36,0.45,
53239.1,44.49095526059201,3.682012153860377,3.135039643440913,0.28,-0.11,-0.10,0.79,-0.37,0.51,
53239.2,45.27199686340332,4.265907067138394,3.1185706233321606,-0.02,0.33,0.03,0.76,-0.35,0.52,
53239.3,45.19933738452368,5.352864379803211,3.112340131560341,-0.02,0.54,0.19,0.73,-0.37,0.50,
53239.4,43.90117310505495,5.647925770024185,3.0585810306834604,0.17,0.48,0.43,0.68,-0.37,0.56,
53239.5,44.11195416210894,5.872376430188475,2.9951813083157957,0.30,0.54,0.65,0.57,-0.42,0.54,
53239.6,42.99129911970561,5.645294953076946,2.9581537274068297,0.63,0.12,0.96,0.53,-0.42,0.60,
53239.7,43.627808792099565,5.359851177571611,2.884148007995224,0.66,0.26,0.76,0.40,-0.43,0.64,
53239.8,45.1267935931637,5.235262573600645,2.7876793433314884,1.02,0.44,1.01,0.37,-0.45,0.68,
53239.9,44.6855189071359,5.1168606574660895,2.708510567803534,0.88,0.19,0.91,0.38,-0.43,0.71,
53240.0,45.70881096681471,5.073486990034096,2.64879288811958,0.75,-0.02,0.72,0.35,-0.34,0.78,
53240.1,47.00341370581503,4.930451813249471,2.5794382536815865,0.79,0.02,0.69,0.28,-0.29,0.80,
53240.2,48.34547755478272,4.952850087925527,2.4704532119305496,0.98,0.16,0.53,0.26,-0.21,0.83,
53240.3,49.31585546251834,4.914665951950626,2.387915230130134,0.98,0.05,0.59,0.27,-0.13,0.88,
53240.4,48.89140619781763,4.859837127850903,2.3239800308481042,0.90,0.36,0.47,0.20,-0.02,0.89,
53240.5,51.32928306532247,4.841175855665064,2.2474061420454463,0.65,0.11,0.36,0.20,0.06,0.94,
53240.6,51.590353749514065,4.811019888292296,2.215649821986074,0.41,0.05,-0.22,0.13,0.08,0.91,
53240.7,53.01915502910245,4.831943029290926,2.1477380437852323,0.14,-0.08,-0.16,0.26,0.13,1.05,
53240.8,52.497293263557886,4.857578967234436,2.139456963828335,-0.16,0.29,-0.05,0.18,0.09,0.94,
53240.9,52.75350225340494,4.877389695974547,2.1397276304455595,0.13,0.81,0.10,0.16,0.10,0.89,
53241.0,51.761395846711864,4.922547493429743,2.1494922985991263,-0.03,0.39,0.09,0.08,0.08,0.96,
53241.1,52.939895164233185,4.922982633756454,2.1352404905215163,0.06,0.21,0.19,0.04,0.06,0.91,
53241.2,51.86540851087553,4.9605403258261,2.1162932043201144,-0.01,0.03,0.08,0.09,0.08,0.92,
53241.3,52.24662572836642,4.943441269195312,2.112764116185616,0.01,0.05,0.04,0.05,0.10,0.94,
53241.4,53.23772064993016,4.92830013948501,2.1263874119094197,0.01,-0.07,0.03,0.05,0.09,0.91,
53241.5,53.08439318669848,4.913574358438407,2.110519677844914,0.05,-0.12,-0.01,0.04,0.09,0.92,
53241.6,52.627146987082625,4.9029587076797005,2.1224122146931657,0.08,-0.02,0.02,0.07,0.08,0.91,
53241.7,51.30014424930987,4.921211095784729,2.100029854094835,0.03,-0.05,-0.03,0.05,0.08,0.90,
53241.8,52.51736569935701,4.930068830759506,2.1138835114099095,0.01,0.01,-0.02,0.06,0.10,0.91,
53241.9,52.50866404699323,4.916496430090254,2.1013508746386,0.01,0.00,0.00,0.07,0.12,0.80,
53242.0,52.56440240314733,4.9448777147937495,2.1120111181178407,-0.01,-0.08,-0.04,0.10,0.12,0.97,
53242.1,52.29243157475085,4.936184834462578,2.1263556418732383,0.01,-0.28,0.02,0.08,0.09,0.91,
53242.2,52.0896323657597,4.929922496490971,2.1025094359946506,-0.00,-0.06,0.01,0.08,0.09,0.91,
53242.3,52.45412281222516,4.914343581202356,2.1041735034311926,-0.00,-0.01,0.01,0.08,0.09,0.91,
53242.4,50.87839914934431,4.929087510032364,2.116571489398798,0.01,-0.00,0.01,0.09,0.10,0.91,
53242.5,51.7652016319844,4.890759163509937,2.124948136112568,0.00,-0.01,0.01,0.08,0.09,0.90,
53242.6,50.347983077775815,4.923125581933444,2.1150693699134346,0.00,-0.01,0.00,0.09,0.10,0.91,
53242.7,52.86545280237368,4.932789484615595,2.1196407989246744,0.02,-0.05,0.01,0.08,0.10,0.91,
53242.8,52.69777983938223,4.90978454023457,2.1078381655499774,0.00,0.01,-0.00,0.09,0.10,0.89,
53242.9,52.25222483301548,4.904017893803314,2.108015123879846,-0.00,0.04,0.00,0.07,0.10,0.91,
53243.0,52.5658643988663,4.918029347521541,2.1155495171663934,0.01,-0.01,0.01,0.09,0.10,0.91,
53243.1,53.311583169138764,4.914985886097962,2.1145313708407265,0.01,-0.01,0.02,0.10,0.09,0.91,
53243.2,52.2549557458429,4.891086964095848,2.1079839944339795,0.04,-0.11,0.09,0.07,0.12,0.92,
53243.3,54.23656700050253,4.917679555096468,2.1042532949957415,0.01,0.04,-0.04,0.10,0.17,0.80,
53243.4,53.07135385497529,4.903065716366105,2.110227590700761,0.01,-0.01,0.01,0.09,0.11,0.90,
53243.5,51.947735273060744,4.930368033301509,2.1304800880533987,-0.00,-0.02,0.02,0.10,0.08,0.90,
53243.6,52.8508514595555,4.916496430090254,2.1122855014081985,-0.00,0.01,0.02,0.09,0.09,0.91,
53243.7,53.2471557925867,4.882689259301948,2.1236271402004663,0.00,0.02,0.02,0.09,0.09,0.90,
53243.8,51.997127805293246,4.898350110899155,2.1298850723991123,0.00,-0.03,0.02,0.11,0.09,0.91,
53243.9,52.29310757642923,4.882728495836063,2.118040994666872,-0.00,-0.02,0.01,0.09,0.09,0.91,
53244.0,51.71830817031818,4.912072865759791,2.06936304893841,-0.00,-0.02,-0.00,0.10,0.10,0.91,
53244.1,52.42213368416055,4.913568611599144,2.10608561340051,-0.00,0.00,-0.02,0.08,0.10,0.89,
