time,mr,mtheta,mphi,gx,gy,gz,ax,ay,az,
53125.5,46.50056988898093,5.351170537936564,2.112863186458644,,,,,,,
53125.5,46.213315180800436,5.376017504979991,2.122698304407881,,,,,,,
53125.5,46.24752101464466,5.329938942408629,2.112877065463206,,,,,,,
53125.6,46.38665433074474,5.325514327216786,2.0742646104214932,,,,,,,
53125.6,46.572671170977515,5.321504374206944,2.121982007727649,,,,,,,
53125.6,46.65389158473278,5.326421537666279,2.1262010164267053,,,,,,,
53125.7,46.56459384553891,5.340652697478721,2.106781661704708,,,,,,,
53125.7,46.67292577072922,5.3472885809704165,2.1123900490152403,,,,,,,
53125.7,45.82155169786375,5.348671859297821,2.1320905379449173,,,,,,,
53125.8,45.720715217502885,5.307098628233892,2.1078239583851834,,,,,,,
53125.8,46.84806933054979,5.335462503583726,2.1041825753111887,,,,,,,
53125.8,47.5024609888793,5.350860589128803,2.1019171456170715,,,,,,,
53125.9,45.48781265350094,5.333587626668583,2.103203142185639,,,,,,,
53125.9,47.282288438695524,5.345059130990151,2.0924145765078803,,,,,,,
53125.9,47.14760439301238,5.338039209763983,2.0916101874301463,,,,,,,
53126.0,46.887167754088104,5.311694431546516,2.1096434269689412,,,,,,,
53126.0,46.84688890417378,5.317021063212091,2.1101575477432064,,,,,,,
53126.0,46.737132988663305,5.335423651227895,2.1115637821423885,,,,,,,
53126.1,46.15719445546924,5.337516766654583,2.1318690138196352,,,,,,,
53126.1,47.5951321040293,5.355595002381837,2.117168461554937,,,,,,,
53126.1,47.51911825781283,5.3525484140644135,2.113219996536569,,,,,,,
53126.2,46.50735963264309,5.349863665471468,2.0995253102036457,,,,,,,
53126.2,45.759112753636295,5.352365431064945,2.090373462239646,,,,,,,
53126.2,47.61929545887885,5.32963172442138,2.1051063463142348,,,,,,,
53126.3,46.93522025089474,5.336805228654937,2.1025920475953512,,,,,,,
53126.3,47.028077783383836,5.34018761873091,2.070882066424635,,,,,,,
53126.3,46.275399512051756,5.339097090032009,2.091709770913501,,,,,,,
53126.4,47.342972023310914,5.319690783483396,2.1080717452426527,,,,,,,
53126.4,47.11435980675106,5.323317067055127,2.105775745741227,,,,,,,
53126.4,46.395776747458385,5.335423651227895,2.099183022600108,,,,,,,
53126.5,45.944770104985835,5.3413505651621636,2.0838117050035923,,,,,,,
53126.5,46.101931629813514,5.341513290989254,2.0759337011363055,,,,,,,
53126.5,46.95883516442885,5.342884009496307,2.0353815201147887,,,,,,,
53126.6,46.159359830916195,5.331349696568099,2.067097735784338,,,,,,,
53126.6,45.97346843560969,5.338139023654208,2.0503159748763986,,,,,,,
53126.6,46.2838859647718,5.344468708547694,2.0543819589402563,,,,,,,
53126.7,47.96179312744677,5.351714950801026,2.1083942936757554,,,,,,,
53126.7,47.09300372666836,5.34912175223879,2.1070322963509422,,,,,,,
53126.7,46.49856771987714,5.3472885809704165,2.1061243959121114,,,,,,,
53126.8,47.09503370844955,5.337907857754517,2.1296380967032484,,,,,,,
53126.8,46.96426194458932,5.348184549418501,2.112882517579949,,,,,,,
53126.8,46.760788060082994,5.3472885809704165,2.115505292279588,,,,,,,
53126.9,47.29806549955294,5.306961881556929,2.1125810099299382,,,,,,,
53126.9,47.05961857048993,5.317024638817339,2.1111669096764114,,,,,,,
53126.9,46.03787679726336,5.364363607747116,2.1037271715597665,,,,,,,
53127.0,48.07599608952476,5.331774692166775,2.090844083328487,,,,,,,
53127.0,48.05768825068471,5.332331726464692,2.0915419350418465,,,,,,,
53127.0,47.08098129818451,5.34906999130501,2.1071840677718443,,,,,,,
53127.1,46.09199713616237,5.343538246887537,2.0909913927714294,,,,,,,
53127.1,46.656554737785775,5.343963688936004,2.079405180914716,,,,,,,
53127.1,46.926769545750744,5.329778985471728,2.0761976398916664,,,,,,,
53127.2,46.214947798304394,5.353237309976041,2.0972089051773084,,,,,,,
53127.2,46.16335126482912,5.3601842656091625,2.091104572070391,,,,,,,
53127.2,46.12056049095674,5.366155338800496,2.085896400940043,,,,,,,
53127.3,46.37485309949779,5.335822062928421,2.0942101965065794,,,,,,,
53127.3,47.00829182176268,5.3092495513143785,2.133305186092028,,,,,,,
53127.3,47.21820411663281,5.323439093871135,2.1133519456428678,,,,,,,
53127.4,47.34867474386163,5.329444864450386,2.104316647808094,,,,,,,
53127.4,47.01333640574768,5.305830054339699,2.112253963299338,,,,,,,
53127.4,47.49527344904964,5.315193246136732,2.106162516687238,,,,,,,
53127.5,46.98367588854665,5.323461756135407,2.1166132263276927,,,,,,,
53127.5,47.10238847447123,5.294207917166894,2.0933855324170594,,,,,,,
53127.5,47.12029711281541,5.293337027240747,2.0909641009825024,,,,,,,
53127.6,46.00729181336367,5.317496673035582,2.126736864529071,,,,,,,
53127.6,46.04751133340433,5.33652903152237,2.137737141666758,,,,,,,
53127.6,47.31379714205995,5.329179261777126,2.1074551334989007,,,,,,,
53127.7,48.02827708756582,5.326522769609303,2.123882217404563,,,,,,,
53127.7,46.85781258232185,5.32413110131877,2.1057954368905545,,,,,,,
53127.7,45.55223375422988,5.321504374206944,2.084382733510316,,,,,,,
53127.8,46.12681974730103,5.350346521133963,2.09005951620236,,,,,,,
53127.8,46.59955149998763,5.331349696568099,2.0842705965363133,,,,,,,
53127.8,46.81412820933441,5.324064708057815,2.094467519651091,,,,,,,
53127.9,48.14682336354082,5.3106893958505665,2.114335185675054,,,,,,,
53127.9,48.06782291720731,5.311701186540356,2.111927058161138,,,,,,,
53127.9,46.31689648497619,5.337196529001858,2.0750943813831624,,,,,,,
53128.0,46.15795164432668,5.3404092710945275,2.1021934066166197,,,,,,,
53128.0,46.242081484293074,5.336200079146732,2.104135256459026,,,,,,,
53128.0,46.64681875540924,5.316493475330188,2.112726781973767,,,,,,,
53128.1,46.225375066082485,5.328498306921999,2.10133627585871,,,,,,,
53128.1,46.395229280605996,5.321711060236738,2.1154907084541152,,,,,,,
53128.1,46.28809134107821,5.3209212850820276,2.115629999694473,,,,,,,
53128.2,47.133395803824705,5.338217647985302,2.1023338162197582,,,,,,,
53128.2,47.622180756450035,5.351714950801026,2.096309492272817,,,,,,,
53128.2,47.95193635297745,5.314988596210599,2.1065755061108877,,,,,,,
53128.3,46.45123679731251,5.348184549418501,2.0942554439711625,,,,,,,
53128.3,46.826020544137634,5.35197378954905,2.103220847445879,,,,,,,
53128.3,47.143264630273535,5.355148249551448,2.1105972766391847,,,,,,,
53128.4,48.063551679001,5.2789498697821555,2.1195227739813784,,,,,,,
53128.4,47.78734351269172,5.289204851470497,2.1139907629776187,,,,,,,
53128.4,46.76253307937884,5.331349696568099,2.090417527467785,,,,,,,
53128.5,45.536361295123264,5.318112148766824,2.1143364081662366,,,,,,,
53128.5,45.640418490631745,5.3185649468178795,2.1139827809657286,,,,,,,
53128.5,46.51572959763181,5.322560746263342,2.1101595382649103,,,,,,,
53128.6,46.18008553478436,5.329508223272717,2.0894003547212447,,,,,,,
53128.6,45.858035282816026,5.313583243669959,2.1202999363496433,,,,,,,
53128.6,45.84980479783965,5.313184972207602,2.1234820338425933,,,,,,,
53128.7,45.973188925720606,5.350545512426144,2.100771625626204,,,,,,,
53128.7,45.7492437095959,5.33849257724606,2.1074527197859596,,,,,,,
53128.7,47.10014543501963,5.333354942328941,2.1039811785812828,,,,,,,
53128.8,47.53226903904336,5.317699652885592,2.1199449219678366,,,,-0.13,-0.05,0.93,
53128.8,47.41122019100543,5.314953003869068,2.098891771735066,,,,-0.13,-0.05,0.92,
53128.8,47.28926516663163,5.309186431924781,2.0925736944451185,,,,-0.13,-0.04,0.90,
53128.9,46.43900946402711,5.35919635906619,2.106885217026706,,,,-0.13,-0.04,0.91,
53128.9,46.53466987096825,5.352434401025581,2.109915931805872,,,,-0.13,-0.04,0.92,
53128.9,47.12297210490866,5.310582578871403,2.127516742023372,,,,-0.13,-0.03,0.93,
53129.0,46.29323708707353,5.321808352407116,2.119355629822852,,,,-0.13,-0.03,0.93,
53129.0,46.26873242266315,5.321204330717308,2.12069300867078,,,,-0.13,-0.03,0.93,
53129.0,45.98666872040201,5.333460544866995,2.104384133538798,,,,-0.13,-0.03,0.93,
53129.1,46.993993233178216,5.3034325260386215,2.0795435701319454,,,,-0.13,-0.03,0.91,
53129.1,46.24185333656081,5.323567163699268,2.1026320373351304,,,,-0.13,-0.03,0.91,
53129.1,46.10778025452971,5.32747631359405,2.107116931901666,,,,-0.13,-0.03,0.91,
53129.2,47.81840126980408,5.347690014021758,2.0819023707543227,,,,-0.13,-0.04,0.92,
53129.2,46.859749252423455,5.33278044325272,2.078942282052192,,,,-0.12,-0.03,0.91,
53129.2,45.93178529079835,5.317571786891815,2.075743104688682,,,,-0.12,-0.04,0.92,
53129.3,47.520043139711056,5.327391924790472,2.101211829968825,,,,-0.12,-0.03,0.92,
53129.3,46.69810595730838,5.295133147117012,2.0870160932418695,,,,-0.12,-0.03,0.92,
53129.3,46.60039699401712,5.310047495304084,2.0882065076237,,,,-0.12,-0.03,0.92,
53129.4,46.70920251941794,5.318659447768929,2.109925868763725,,,,-0.13,-0.03,0.92,
53129.4,47.477315635996106,5.34109670068575,2.077725627498574,,,,-0.13,-0.03,0.92,
53129.4,47.39335290945345,5.33201937594683,2.083061745587047,,,,-0.13,-0.03,0.92,
53129.5,46.395776747458385,5.335423651227895,2.099183022600108,,,,-0.11,-0.03,0.92,
53129.5,45.57545940525449,5.337115827108161,2.1058922407397516,,,,-0.11,-0.03,0.93,
53129.5,45.46345675374894,5.337516766654583,2.1070973383458087,,,,-0.12,-0.04,0.92,
53129.6,46.36084662729963,5.347961613092071,2.0851933541012864,,,,-0.14,-0.02,0.91,
53129.6,46.644324413587555,5.337196529001858,2.087670611398761,,,,-0.14,-0.03,0.91,
53129.6,46.94971778402933,5.303943966857734,2.0969829218433267,,,,-0.14,-0.04,0.91,
53129.7,45.940193730544934,5.313114443027937,2.1176752910918983,,,,-0.12,-0.01,0.89,
53129.7,46.24756534132364,5.327220517633518,2.1005535979933523,,,,-0.10,-0.03,0.90,
53129.7,46.656554737785775,5.343963688936004,2.079405180914716,,,,-0.18,-0.06,0.91,
53129.8,45.748749709691516,5.3513257231774265,2.0632617803080597,,,,-0.18,-0.01,0.96,
53129.8,45.13564998978081,5.3191438087881675,2.089596623935786,,,,-0.17,-0.01,0.96,
53129.8,45.64473901776633,5.307738219178302,2.0895354214937587,,,,-0.16,-0.01,0.95,
53129.9,45.33284129634938,5.304820442752683,2.1131835573727544,,,,-0.11,-0.04,0.94,
53129.9,45.06852005557759,5.304770908365958,2.111796525593878,,,,-0.11,-0.04,0.93,
53129.9,46.883606943152316,5.356818820947318,2.0808571781757674,,,,-0.12,-0.03,0.92,
53130.0,46.04766335005501,5.311694431546516,2.0783241134957358,,,,-0.12,-0.03,0.91,
53130.0,46.89642417071903,5.322039174388961,2.1050597733196064,,,,-0.12,-0.03,0.91,
53130.0,47.10372172132474,5.324494058426909,2.111100338061405,,,,-0.12,-0.03,0.92,
53130.1,46.717737530835116,5.3395523189637,2.0917063276125405,,,,-0.13,-0.03,0.91,
53130.1,47.37736379327158,5.350142461371756,2.107639352188235,,,,-0.14,-0.04,0.91,
53130.1,46.189956700564245,5.328429441766892,2.104298705199798,,,,-0.13,-0.03,0.90,
53130.2,46.81813964693599,5.343963688936004,2.0855615840345463,,,,-0.13,-0.03,0.93,
53130.2,46.82087568595871,5.342714707361331,2.1015511534765166,,,,-0.13,-0.03,0.92,
53130.2,46.8512251707466,5.3404092710945275,2.126852975881834,,,,-0.13,-0.03,0.92,
53130.3,45.72944565594471,5.327413914505652,2.0844564251641478,,,,-0.14,-0.02,0.92,
53130.3,45.83994982545247,5.304750567328799,2.1318382039557147,,,,-0.14,-0.02,0.92,
53130.3,46.08180009504837,5.310645096304987,2.123436351735834,,,,-0.14,-0.02,0.92,
53130.4,46.70531982547599,5.341330407313263,2.091118430922775,,,,-0.13,-0.02,0.93,
53130.4,46.688805938897175,5.343200039090714,2.091321109803518,,,,-0.12,-0.03,0.92,
53130.4,46.90814001855115,5.34906999130501,2.1009537550009254,,,,-0.12,-0.03,0.92,
53130.5,46.63938357225575,5.323461756135407,2.1043346390636817,,,,-0.13,-0.03,0.91,
53130.5,47.22881323937751,5.351108772889133,2.1251261407613486,,,,-0.13,-0.03,0.91,
53130.5,47.43470670300387,5.3602218684965495,2.1316260794030786,,,,-0.13,-0.03,0.91,
53130.6,46.10364844564907,5.346879499795682,2.112224606660889,,,,-0.14,-0.03,0.91,
53130.6,46.20641081062237,5.357512476722277,2.118475154546725,,,,-0.14,-0.03,0.91,
53130.6,46.26080954760736,5.325015768930866,2.111947297853898,,,,-0.14,-0.03,0.90,
53130.7,47.80466295247776,5.34846448308844,2.1023280408637968,,,,-0.16,-0.07,1.04,
53130.7,48.075169266472685,5.305534815582968,2.0990228580471815,,,,-0.15,-0.09,0.85,
53130.7,47.288583188757094,5.311692845700266,2.103348290983715,,,,-0.16,-0.09,0.83,
53130.8,46.10038720010928,5.35919635906619,2.0943902531980374,,,,-0.13,-0.03,0.92,
53130.8,46.225375066082485,5.328498306921999,2.10133627585871,,,,-0.13,-0.04,0.93,
53130.8,46.48497606754251,5.323012785119144,2.1013024094370163,,,,-0.14,-0.04,0.92,
53130.9,46.837491393113694,5.317573204582598,2.1030765593927203,,,,-0.13,-0.04,0.93,
53130.9,46.47241977775636,5.323461756135407,2.098220560190879,,,,-0.14,-0.03,0.93,
53130.9,46.339000852413726,5.337516766654583,2.1380813767883007,,,,-0.13,-0.03,0.93,
53131.0,45.08132207466858,5.309447512961118,2.087221123410341,,,,-0.13,-0.02,0.91,
53131.0,45.67326898745042,5.3155451135000735,2.0871635118887246,,,,-0.12,-0.03,0.90,
53131.0,46.69032662126064,5.335456494334634,2.094762068098337,,,,-0.12,-0.03,0.91,
53131.1,46.572928832101596,5.34906999130501,2.0885422047016546,,,,-0.13,-0.03,0.92,
53131.1,46.58175179187661,5.343962225461403,2.0985925655369044,,,,-0.13,-0.03,0.92,
53131.1,46.622032345233514,5.334447943729553,2.1173093961895306,,,,-0.13,-0.03,0.92,
53131.2,45.951280722086516,5.336156143779261,2.1144741365386546,,,,-0.13,-0.03,0.91,
53131.2,45.35462159471734,5.31804727850809,2.1082676316775686,,,,-0.13,-0.03,0.92,
53131.2,45.70752673247591,5.327928185611942,2.098599822860403,,,,-0.12,-0.03,0.91,
53131.3,46.287159126479125,5.348184549418501,2.0880806593065184,,,,-0.13,-0.04,0.92,
53131.3,46.68965731294245,5.344220738064523,2.093781163755505,,,,-0.13,-0.04,0.92,
53131.3,47.84857051156283,5.333289563232334,2.1098055848580515,,,,-0.13,-0.03,0.91,
53131.4,45.364965557134504,5.310836936308727,2.1168788716728013,,,,-0.12,-0.02,0.93,
53131.4,45.38408862145411,5.309157662570582,2.111217858088116,,,,-0.12,-0.03,0.92,
53131.4,45.46489414922243,5.3021436320378985,2.0854666756445837,,,,-0.13,-0.03,0.92,
53131.5,47.161070810574266,5.323461756135407,2.122775110003511,,,,-0.13,-0.03,0.92,
53131.5,46.08431511913788,5.312039802609398,2.079868814048001,,,,-0.13,-0.02,0.92,
53131.5,46.047707869122,5.3115643033709965,2.079566447066308,,,,-0.13,-0.03,0.92,
53131.6,46.1752033022054,5.322560746263342,2.0977091565293264,,,,-0.12,-0.04,0.95,
53131.6,47.365062018327386,5.320269011406107,2.088249578355523,,,,-0.12,-0.04,1.13,
53131.6,48.0752597496883,5.318990087906929,2.0829605945475187,,,,-0.12,-0.05,1.07,
53131.7,46.546071799884466,5.326334692369597,2.0990394934172074,-0.02,-0.09,-0.04,-0.08,-0.02,0.93,
53131.7,47.0527161808965,5.318637483710769,2.107541246838588,-0.05,-0.10,-0.05,-0.08,-0.01,0.89,
53131.7,46.70613664177332,5.317870877231018,2.1005107483866476,-0.04,-0.10,-0.05,-0.09,-0.02,0.86,
53131.8,45.11515155687721,5.3230514069901815,2.1114341641535774,-0.01,0.06,-0.01,-0.14,-0.04,0.93,
53131.8,45.337738143846565,5.317025909038304,2.1051544526923305,-0.00,0.06,-0.01,-0.14,-0.04,0.93,
53131.8,46.24762156046514,5.293934742766939,2.080126606079015,-0.00,0.05,-0.01,-0.14,-0.04,0.92,
53131.9,45.921412216960405,5.345464310450637,2.105223820934881,-0.01,-0.01,0.02,-0.13,-0.03,0.92,
53131.9,48.06737979128881,5.328784649895529,2.106843235215228,-0.01,-0.02,0.02,-0.12,-0.03,0.91,
53131.9,47.80454162524728,5.328959098843345,2.107920056241505,-0.02,-0.02,0.02,-0.13,-0.03,0.92,
53132.0,47.10369518413603,5.295439086247194,2.114074079389897,0.00,0.02,0.01,-0.12,-0.03,0.91,
53132.0,46.4439673154652,5.296191692624834,2.1196433305154914,0.01,0.01,0.01,-0.12,-0.03,0.91,
53132.0,46.67692149231781,5.3135220718510805,2.1241311954374678,0.01,0.01,0.01,-0.13,-0.03,0.91,
53132.1,47.78309952273921,5.29769162424256,2.1064828545162158,0.01,-0.01,0.01,-0.12,-0.02,0.92,
53132.1,46.800008547007764,5.310994326231808,2.1047890659362607,0.01,-0.01,0.01,-0.12,-0.02,0.92,
53132.1,46.05685291028904,5.321504374206944,2.1034841574944196,0.01,-0.00,0.01,-0.12,-0.02,0.92,
53132.2,46.35493716962628,5.3106472768214825,2.1109788968208654,0.01,-0.03,0.02,-0.12,-0.03,0.91,
53132.2,46.525669259023026,5.3155451135000735,2.118569815983163,0.01,-0.03,0.02,-0.12,-0.03,0.92,
53132.2,46.456756236310774,5.321653108017426,2.113179919615992,0.01,-0.03,0.02,-0.12,-0.03,0.92,
53132.3,47.2701565472339,5.335380638687243,2.0680859177915827,-0.01,0.02,0.06,-0.12,-0.02,0.91,
53132.3,47.04037627400529,5.330695518343579,2.0707392146114447,-0.02,0.02,0.07,-0.12,-0.02,0.90,
53132.3,45.75389054495803,5.30331758923662,2.0861633838287794,-0.02,0.02,0.07,-0.12,-0.03,0.91,
53132.4,47.69063325224357,5.266191361096402,2.1117874368441365,-0.03,-0.08,0.12,-0.13,-0.04,0.92,
53132.4,46.93154269784875,5.286681604571134,2.1021437731698995,-0.02,-0.08,0.12,-0.13,-0.05,0.92,
53132.4,46.79335636604837,5.289397730168477,2.101152988107197,-0.02,-0.08,0.13,-0.13,-0.05,0.91,
53132.5,46.613562404090075,5.289192605196091,2.1049110989545494,0.08,0.03,0.10,-0.12,-0.03,0.92,
53132.5,46.79469521217123,5.276506743697803,2.0942138031947346,0.09,0.03,0.10,-0.13,-0.03,0.92,
53132.5,47.63202389149552,5.300526327581647,2.0978892074395006,0.09,0.02,0.10,-0.13,-0.04,0.93,
53132.6,47.69794230362564,5.29985782364134,2.0833192384322095,0.07,-0.06,0.08,-0.09,-0.02,0.92,
53132.6,47.045231426787566,5.294223476288467,2.1059053034236808,0.07,-0.06,0.08,-0.10,-0.02,0.92,
53132.6,46.45866119465777,5.2889980693674845,2.1277962833993262,0.07,-0.07,0.08,-0.10,-0.02,0.91,
53132.7,47.36420694997436,5.309186431924781,2.095319235273445,-0.00,-0.08,0.13,-0.08,-0.03,0.91,
53132.7,47.25804164372451,5.302492705958913,2.094663387843566,-0.00,-0.08,0.13,-0.08,-0.03,0.90,
53132.7,46.76369638940019,5.270596589475763,2.0904032967875184,0.00,-0.08,0.13,-0.09,-0.03,0.90,
53132.8,46.2028678763559,5.289971676239524,2.09811205729127,0.04,-0.04,0.20,-0.08,-0.01,0.92,
53132.8,46.217495605019536,5.2876207088912395,2.09717687104449,0.05,-0.04,0.21,-0.09,-0.01,0.91,
53132.8,46.703076986425636,5.251708091730865,2.0911459480304715,0.05,-0.04,0.20,-0.09,-0.01,0.91,
53132.9,47.39880272749513,5.209854973932002,2.107370183310622,0.03,-0.15,0.21,-0.08,0.02,0.90,
53132.9,47.451547919957264,5.212996368580832,2.092066073217499,0.02,-0.16,0.21,-0.09,0.02,0.91,
53132.9,47.46464895056109,5.213169198429009,2.0904506202902406,0.02,-0.17,0.21,-0.08,0.01,0.92,
53133.0,47.3739063198297,5.211502061758329,2.0959325008950893,0.05,-0.15,0.22,-0.07,0.01,0.93,
53133.0,47.77283851729976,5.20779087307008,2.09859576785259,0.05,-0.14,0.22,-0.07,0.02,0.93,
53133.0,47.20837743451897,5.188673279346015,2.1021371169261043,0.04,-0.13,0.22,-0.07,0.02,0.93,
53133.1,46.79226111228223,5.194163520449427,2.1175978446862214,-0.07,-0.16,0.15,-0.06,0.01,0.93,
53133.1,47.059496384895574,5.204858642678401,2.1241048806026113,-0.07,-0.16,0.15,-0.06,0.01,0.94,
53133.1,47.059496384895574,5.204858642678401,2.1241048806026113,-0.08,-0.17,0.15,-0.06,0.01,0.93,
53133.2,47.226277642854726,5.133666269491148,2.134901647657662,-0.21,-0.18,0.13,-0.03,-0.01,0.93,
53133.2,47.7973744048771,5.189401528688442,2.13106043076529,-0.21,-0.19,0.13,-0.03,-0.01,0.93,
53133.2,47.85274913732753,5.1880173784398025,2.13973240657237,-0.22,-0.19,0.13,-0.03,-0.01,0.93,
53133.3,47.824609773630144,5.141912841816286,2.1616081142295025,-0.12,-0.06,0.22,-0.04,-0.04,0.95,
53133.3,48.01270665146884,5.139929336328537,2.1609868710750857,-0.11,-0.06,0.23,-0.04,-0.05,0.95,
53133.3,47.403137026994315,5.143385448786035,2.1531169838309303,-0.11,-0.06,0.23,-0.04,-0.04,0.95,
53133.4,47.96705744570955,5.147552675091327,2.1538626274296298,-0.15,-0.09,0.17,-0.01,-0.02,0.90,
53133.4,47.10952026926192,5.135148723496753,2.176464687509005,-0.16,-0.09,0.17,-0.02,-0.03,0.91,
53133.4,46.93317163797904,5.1324088772032646,2.1814076863381415,-0.16,-0.10,0.18,-0.02,-0.03,0.91,
53133.5,46.49181110690355,5.103920821610961,2.2192784241425043,-0.15,-0.20,0.28,0.02,-0.06,0.91,
53133.5,47.07467365792354,5.10998264572969,2.2162956502931666,-0.15,-0.20,0.28,0.02,-0.06,0.91,
53133.5,47.69201715172047,5.1161458495245515,2.213374898618405,-0.15,-0.20,0.28,0.01,-0.06,0.91,
53133.6,47.59711545881746,5.093425452382586,2.1981573739605644,-0.09,-0.22,0.35,0.02,-0.07,0.89,
53133.6,47.029519453211506,5.048138117344834,2.2106421921817443,-0.08,-0.23,0.34,0.02,-0.07,0.89,
53133.6,47.15988761649035,5.068427331208687,2.2304066000171154,-0.08,-0.24,0.34,0.02,-0.07,0.89,
53133.7,46.948561213310896,5.037486299939575,2.239047541409697,-0.11,-0.39,0.34,0.03,-0.10,0.87,
53133.7,46.792693874150906,5.048548754042266,2.2416798243807854,-0.10,-0.41,0.34,0.03,-0.10,0.87,
53133.7,46.628540616236315,5.034835428893077,2.2474992628576755,-0.09,-0.42,0.34,0.03,-0.11,0.87,
53133.8,46.962489286663676,4.950873789046862,2.2729122479907833,-0.10,-0.42,0.42,0.07,-0.11,0.84,
53133.8,46.80857827364553,4.942629866643864,2.27373523420645,-0.10,-0.42,0.43,0.07,-0.11,0.84,
53133.8,47.03785709404713,4.94837115777249,2.283578784543702,-0.10,-0.43,0.45,0.07,-0.13,0.83,
53133.9,46.18766068984226,4.9309328402626615,2.2920804368851657,0.05,-0.61,0.51,0.15,-0.18,0.84,
53133.9,46.582226224172665,4.899360782322569,2.2730693544913843,0.07,-0.61,0.52,0.15,-0.18,0.85,
53133.9,47.94890822531833,4.895101549958152,2.3028785496254214,0.10,-0.60,0.52,0.15,-0.19,0.86,
53134.0,47.93331305052886,4.814413147555237,2.28149659918581,0.35,-0.68,0.58,0.21,-0.11,0.89,
53134.0,47.78947687514481,4.808996249092047,2.2860287600348284,0.36,-0.68,0.59,0.22,-0.11,0.89,
53134.0,47.610979826086336,4.801707130206751,2.2918039095794986,0.37,-0.69,0.60,0.23,-0.11,0.89,
53134.1,47.56251254927561,4.784223418343153,2.266663297994133,0.41,-0.44,0.71,0.28,-0.05,0.89,
53134.1,48.59720259438809,4.724439816388756,2.265235418495088,0.40,-0.42,0.70,0.28,-0.05,0.89,
53134.1,48.476279766500234,4.7211700213166115,2.2544749127398753,0.39,-0.40,0.70,0.27,-0.05,0.89,
53134.2,47.49846944902541,4.655939905083073,2.216692253301927,0.29,-0.47,0.61,0.20,-0.01,0.87,
53134.2,49.299401619086616,4.619989725688257,2.2102558090026716,0.27,-0.52,0.60,0.20,-0.01,0.87,
53134.2,48.795235423143524,4.6167735039245965,2.205943050660069,0.26,-0.56,0.59,0.21,-0.00,0.86,
53134.3,48.8066255748131,4.627827987207397,2.2093386799576713,0.15,-0.74,0.29,0.31,0.02,0.88,
53134.3,49.181430438733685,4.561149761352468,2.2138182182430888,0.15,-0.76,0.28,0.31,0.01,0.88,
53134.3,49.28974132616238,4.545196765903115,2.2147071985309372,0.14,-0.77,0.28,0.33,0.01,0.87,
53134.4,49.26957884942797,4.505007326275949,2.1782001441683407,0.06,-0.56,0.02,0.37,0.05,0.94,
53134.4,50.36660302224084,4.498205015061029,2.1782941342596294,0.06,-0.57,0.01,0.37,0.04,0.94,
53134.4,49.6366104805717,4.494334006297672,2.1826360716385813,0.06,-0.58,0.01,0.38,0.03,0.93,
53134.5,49.65924888678845,4.446030446301784,2.163744418487421,0.13,-0.12,-0.02,0.48,0.04,0.90,
53134.5,49.50387257578946,4.443824526844053,2.1532299860291415,0.14,-0.05,-0.04,0.48,0.03,0.89,
53134.5,49.27560654116802,4.440296935220326,2.136446688317371,0.15,0.01,-0.06,0.48,0.04,0.88,
53134.6,48.91969133181443,4.479726271802142,2.141801050264043,0.19,0.27,0.03,0.44,0.03,0.83,
53134.6,49.057227805900325,4.465270265834562,2.159483736979572,0.19,0.27,0.01,0.43,0.03,0.82,
53134.6,49.6128561967561,4.4728542721405855,2.1532312577193617,0.18,0.26,-0.00,0.42,0.03,0.80,
53134.7,50.34364011471558,4.489187561015843,2.159142094089776,0.07,0.01,-0.01,0.43,-0.02,0.77,
53134.7,50.40558500801275,4.488965179784685,2.1576075120315124,0.07,0.02,-0.02,0.42,-0.02,0.78,
53134.7,50.1440335433838,4.456538718408785,2.1175329389727198,0.07,0.03,-0.02,0.42,-0.02,0.78,
53134.8,49.14436081586574,4.472185450084044,2.090119837680189,-0.04,-0.24,0.13,0.47,-0.03,0.85,
53134.8,48.988758914673475,4.481025907856385,2.109918741552362,-0.05,-0.23,0.13,0.47,-0.03,0.86,
53134.8,48.951184868192925,4.4841034508776065,2.116341579111964,-0.06,-0.21,0.13,0.47,-0.02,0.87,
53134.9,50.01380809336557,4.4837521287259365,2.1446233759799465,-0.06,0.15,-0.13,0.41,-0.02,0.83,
53134.9,50.47488583444246,4.508116711654973,2.1408465442120685,-0.05,0.13,-0.13,0.41,-0.02,0.83,
53134.9,49.992716469501836,4.510392081987996,2.152538112085223,-0.05,0.11,-0.14,0.41,-0.02,0.81,
53135.0,48.95344420977956,4.491492039682647,2.1528085300843807,0.03,0.13,-0.16,0.44,-0.00,0.81,
53135.0,49.34797766879611,4.499367465934325,2.1502180859615616,0.03,0.13,-0.17,0.43,-0.01,0.81,
53135.0,50.136048906949185,4.51462066871161,2.145184958736486,0.03,0.13,-0.18,0.43,-0.01,0.79,
53135.1,50.186732310442366,4.5431733771677525,2.148569932662018,0.07,0.24,-0.13,0.36,0.01,0.79,
53135.1,50.540900268990065,4.5412546629280435,2.140009469533503,0.07,0.22,-0.14,0.36,0.01,0.78,
53135.1,50.50497500246881,4.53808432332094,2.139524434436859,0.07,0.19,-0.16,0.36,0.02,0.77,
53135.2,49.730218177683476,4.534641238239538,2.1497545528101725,0.02,-0.22,0.03,0.47,-0.03,0.87,
53135.2,49.697535150146024,4.537075720089608,2.150906052261549,0.03,-0.18,0.02,0.46,-0.02,0.86,
53135.2,51.152726222558265,4.516195343032958,2.163636750730889,0.04,-0.15,0.01,0.46,-0.03,0.86,
53135.3,50.263964228858825,4.531665357129939,2.108420175866326,0.07,0.12,0.09,0.42,0.01,0.81,
53135.3,49.97617532384806,4.5131163911959336,2.111856959068035,0.07,0.13,0.08,0.41,0.01,0.80,
53135.3,49.85358663125452,4.505025447137928,2.1133351456039904,0.07,0.13,0.07,0.41,0.01,0.79,
53135.4,49.29825757569937,4.549317509467107,2.123950386685385,0.03,-0.12,0.04,0.45,0.01,0.82,
53135.4,49.5455810340337,4.539883773815072,2.120871083043248,0.03,-0.12,0.04,0.46,0.01,0.83,
53135.4,50.860927046211025,4.53729019436524,2.1172403167722145,0.03,-0.11,0.03,0.46,0.01,0.83,
53135.5,51.43501336638302,4.5146802354526585,2.121379683620872,0.04,0.02,0.02,0.44,0.01,0.81,
53135.5,51.26968012383148,4.520818071329714,2.130940296519376,0.04,0.03,0.02,0.45,0.02,0.81,
53135.5,51.1695299958872,4.5163544577127315,2.1354035770472963,0.05,0.04,0.02,0.44,0.01,0.82,
53135.6,50.197987011433035,4.497268382010994,2.1323376638141727,-0.01,-0.04,0.02,0.43,0.01,0.81,
53135.6,50.237904016787965,4.492498940711799,2.128080836986415,-0.01,-0.03,0.01,0.43,0.01,0.82,
53135.6,50.14269737459284,4.513060966880686,2.1255063596963515,-0.01,-0.03,0.01,0.44,0.01,0.81,
53135.7,51.360639598821194,4.5221939759031695,2.1183875177437206,0.00,0.01,-0.01,0.43,0.02,0.82,
53135.7,51.405837217187695,4.526831152121473,2.117851453796621,0.01,0.02,0.00,0.43,0.03,0.82,
53135.7,50.33282129982383,4.500909844711948,2.0999924330739224,0.01,0.03,0.00,0.43,0.02,0.82,
53135.8,49.933882284476944,4.518474854018553,2.1114313934208426,0.05,0.04,0.03,0.42,0.02,0.81,
53135.8,50.74908472081048,4.497646846020022,2.106392748790439,0.05,0.04,0.03,0.43,0.02,0.82,
53135.8,50.60668434110261,4.48511662260663,2.135898824754393,0.05,0.05,0.03,0.42,0.02,0.81,
53135.9,50.70519006965658,4.564218728322478,2.118647362782159,0.02,-0.07,0.04,0.43,0.02,0.80,
53135.9,50.5951035180283,4.549481259413249,2.115116545814949,0.02,-0.07,0.04,0.43,0.02,0.80,
53135.9,50.373426526294594,4.516216301396309,2.10712511363443,0.01,-0.07,0.03,0.43,0.01,0.81,
53136.0,50.500266335931336,4.4894917834274946,2.128809920204882,-0.00,-0.01,0.03,0.45,0.01,0.80,
53136.0,50.506428303731795,4.50077463579568,2.126867749180711,-0.00,-0.01,0.03,0.45,0.02,0.81,
53136.0,50.55932554929901,4.539423195575061,2.120408610001336,-0.00,-0.01,0.03,0.44,0.02,0.81,
53136.1,50.973190992913125,4.479593407048862,2.1001450745745744,0.00,0.01,0.02,0.44,0.01,0.80,
53136.1,50.36625854676918,4.460495415205383,2.0993742740180146,0.01,0.02,0.02,0.43,0.02,0.81,
53136.1,50.35971107939361,4.466347440056819,2.104516946368533,0.01,0.03,0.02,0.43,0.02,0.80,
53136.2,49.813798289229055,4.504819890665424,2.1229868580542446,-0.01,0.01,0.01,0.44,0.02,0.81,
53136.2,49.9811824590015,4.495534868160636,2.1275098656933853,-0.01,0.01,0.01,0.44,0.01,0.79,
53136.2,49.300582146664354,4.496798300953124,2.124636581727683,-0.01,0.02,0.01,0.44,0.02,0.80,
53136.3,49.29317802698463,4.505027282548232,2.117351550601381,-0.01,0.02,0.01,0.44,0.01,0.82,
53136.3,50.719610605760764,4.498929631514408,2.12611280582385,-0.01,0.03,0.01,0.44,0.01,0.81,
53136.3,50.25712287825478,4.504531247205058,2.124798025365207,-0.01,0.04,0.00,0.43,0.02,0.82,
53136.4,49.71797863952234,4.470274818159792,2.1227568305337865,-0.02,-0.01,0.01,0.43,0.01,0.82,
53136.4,49.5792718784776,4.486160643946567,2.129467913786477,-0.02,-0.01,0.01,0.43,0.01,0.81,
53136.4,49.2367616725552,4.5356374902090995,2.149026695513195,-0.02,-0.01,0.02,0.43,0.01,0.82,
53136.5,49.59356208218966,4.508116711654973,2.112493715795181,-0.01,-0.02,0.02,0.43,0.01,0.82,
53136.5,49.46497447689627,4.502827670212155,2.1119345950405837,-0.01,-0.02,0.02,0.44,0.01,0.81,
53136.5,48.84791295439345,4.476203842402451,2.1097352546078327,-0.01,-0.01,0.02,0.44,0.02,0.82,
53136.6,49.20852568407227,4.517211339601066,2.135867959735194,0.04,0.06,0.00,0.43,0.02,0.81,
53136.6,49.56834776346696,4.529033206606887,2.1446670523907394,0.04,0.07,0.01,0.43,0.02,0.82,
53136.6,50.5196496424906,4.506027731305921,2.1362881163431657,0.03,0.07,0.01,0.43,0.02,0.82,
53136.7,49.48057497644909,4.506480810419804,2.121676896128233,-0.02,-0.02,0.00,0.43,0.02,0.82,
53136.7,49.957247722427624,4.5077256415661315,2.1085849125051643,-0.02,-0.02,0.01,0.45,0.01,0.82,
53136.7,50.26057102739681,4.508300927526763,2.1006027630376822,-0.02,-0.01,0.01,0.44,0.01,0.82,
53136.8,50.233750606539424,4.512426973373987,2.122045129002027,-0.00,0.09,0.03,0.39,0.01,0.81,
53136.8,49.569507764350455,4.527274157788898,2.1246023457029333,-0.01,0.07,0.03,0.39,0.01,0.81,
53136.8,49.81536610324168,4.524486222939558,2.117318516617755,-0.02,0.05,0.03,0.39,0.01,0.80,
53136.9,50.239594942634646,4.509694381959113,2.1841848762881826,0.01,0.11,0.02,0.41,0.01,0.81,
53136.9,50.10240014210896,4.5115752796503,2.172249406990463,0.01,0.11,0.02,0.41,0.01,0.81,
53136.9,49.6238702642186,4.519359393722545,2.1239250860670076,0.00,0.10,0.01,0.40,0.01,0.80,
53137.0,50.639068909291765,4.536232130557951,2.1155143969501493,-0.04,0.00,-0.01,0.43,0.01,0.83,
53137.0,49.57806470607743,4.481652232834252,2.1285319380773613,-0.04,0.03,-0.01,0.43,0.01,0.83,
53137.0,49.50383621498439,4.485947032990192,2.1285149541517843,-0.03,0.05,-0.02,0.42,0.01,0.83,
53137.1,50.38958126438441,4.529619792338711,2.1327592215293487,-0.03,0.00,-0.01,0.39,0.01,0.83,
53137.1,49.90236367147352,4.52255347810653,2.1403461783854123,-0.03,-0.01,-0.01,0.39,0.01,0.82,
53137.1,49.330466245516064,4.5530959512198,2.118553099141235,-0.03,-0.01,-0.00,0.39,0.00,0.83,
53137.2,49.36420261687613,4.541800432315835,2.1353077089493726,-0.00,0.02,0.01,0.41,0.00,0.82,
53137.2,50.732017503742156,4.513524453541475,2.140407191929345,-0.00,0.02,0.01,0.41,-0.00,0.82,
53137.2,51.7867569944286,4.492997149076928,2.1438775466863826,-0.00,0.02,0.01,0.41,0.00,0.81,
53137.3,50.66574483810536,4.516468889770264,2.1452367930142784,-0.02,-0.00,0.01,0.40,0.00,0.82,
53137.3,51.38259724848482,4.559739651989425,2.1450162800675296,-0.02,-0.00,0.01,0.40,0.01,0.81,
53137.3,50.74007193530572,4.541566002718764,2.145462493150305,-0.02,-0.01,0.01,0.40,0.01,0.81,
53137.4,50.4936174184421,4.500636451476278,2.1057107268962434,-0.01,-0.01,0.01,0.41,0.00,0.82,
53137.4,50.50096434722806,4.505786078786893,2.1136993827202284,-0.01,-0.00,0.01,0.41,0.00,0.82,
53137.4,50.60450968046227,4.535212452186935,2.159028574718282,-0.01,-0.01,0.01,0.41,0.00,0.82,
53137.5,50.043123403720514,4.51302085123528,2.1545078104358435,0.00,0.03,-0.00,0.41,0.01,0.82,
53137.5,51.0329119294598,4.5041287300791435,2.13431615074468,-0.00,0.03,-0.00,0.41,0.01,0.81,
53137.5,51.005905540437176,4.505991208506852,2.133723161237155,-0.00,0.02,-0.00,0.40,0.01,0.83,
53137.6,50.401490057338584,4.507903299932855,2.1347218390292637,-0.05,-0.03,0.01,0.41,0.00,0.82,
53137.6,50.839796419734014,4.506652303986535,2.132529203708903,-0.05,-0.03,0.01,0.41,-0.00,0.82,
53137.6,51.038053450342325,4.516047257487185,2.14681768127303,-0.05,-0.03,0.01,0.42,-0.00,0.81,
53137.7,50.29986580498998,4.525016504078047,2.1580501584821934,-0.03,-0.04,-0.01,0.39,0.00,0.84,
53137.7,49.864782161361134,4.532319591130971,2.1609695924398253,-0.03,-0.04,-0.01,0.40,0.00,0.84,
53137.7,49.849135398720804,4.499911184067578,2.1443700235151177,-0.03,-0.04,-0.00,0.40,0.00,0.84,
53137.8,49.91650728967322,4.524257666736946,2.1602756779772876,0.00,-0.06,0.03,0.40,-0.00,0.81,
53137.8,50.014542885044946,4.524797028014104,2.1589653053415847,0.00,-0.07,0.03,0.40,0.00,0.82,
53137.8,50.47329690044033,4.527274157788898,2.1529159239739597,0.00,-0.07,0.04,0.40,-0.00,0.81,
53137.9,51.13664928405067,4.519137860985797,2.140448534551044,-0.00,-0.04,0.03,0.43,-0.00,0.81,
53137.9,51.060291812718816,4.520055629311109,2.1402434787698237,-0.00,-0.05,0.03,0.42,-0.00,0.80,
53137.9,50.10805923202374,4.527274157788898,2.1417468207095336,-0.00,-0.05,0.03,0.43,0.00,0.81,
53138.0,50.043123403720514,4.51302085123528,2.1545078104358435,-0.01,0.02,0.01,0.43,-0.00,0.81,
53138.0,49.978952570056926,4.515842396842489,2.158959217899752,-0.01,0.02,0.01,0.43,0.00,0.81,
53138.0,49.95546116291991,4.515984406950062,2.159032216475233,-0.01,0.02,0.01,0.42,-0.00,0.82,
53138.1,49.80320170430813,4.510551525544779,2.156487759798245,-0.02,-0.01,0.01,0.41,-0.01,0.82,
53138.1,49.89389842455689,4.519450902393337,2.1644424582196007,-0.02,-0.01,0.01,0.41,-0.01,0.82,
53138.1,51.72033835929537,4.5153551822988955,2.147010551287715,-0.02,-0.01,0.01,0.42,-0.01,0.82,
53138.2,49.609067719520795,4.532962283810001,2.135283764282536,-0.01,-0.02,0.01,0.42,-0.01,0.82,
53138.2,49.36420261687613,4.541800432315835,2.1353077089493726,-0.01,-0.02,0.01,0.42,-0.01,0.83,
53138.2,49.5307460068996,4.541800432315835,2.140595429743339,-0.01,-0.02,0.01,0.42,-0.01,0.83,
53138.3,50.20406756429204,4.492803491155195,2.128266154643912,-0.00,-0.02,0.01,0.42,-0.00,0.82,
53138.3,49.86604957283061,4.461105304187513,2.1568550111219125,-0.00,-0.02,0.01,0.42,-0.00,0.82,
53138.3,49.937782289565085,4.483908732385771,2.1621600998111656,-0.00,-0.01,0.01,0.42,-0.01,0.81,
53138.4,50.524359471447035,4.508402743045036,2.1402189622900614,-0.01,-0.02,0.02,0.43,-0.01,0.83,
53138.4,50.512965662293084,4.5082121432965945,2.14130396684251,-0.01,-0.02,0.02,0.42,-0.01,0.83,
53138.4,51.118245275048324,4.509727178061583,2.1483654804076675,-0.01,-0.02,0.02,0.43,-0.00,0.82,
53138.5,50.34344644539148,4.468334157863409,2.1546145698498003,0.01,0.01,0.00,0.42,-0.00,0.82,
53138.5,50.99263966495557,4.5033243738051,2.1495030247086846,0.01,0.01,0.00,0.42,0.00,0.82,
53138.5,51.118245275048324,4.509727178061583,2.1483654804076675,0.01,0.01,0.00,0.42,-0.00,0.82,
53138.6,50.16176731336327,4.496878272994044,2.1529464162842826,0.01,-0.01,0.01,0.43,-0.01,0.81,
53138.6,50.33291368478483,4.516241282344929,2.1386443550900296,0.01,-0.00,0.01,0.43,-0.01,0.81,
53138.6,50.52586466355623,4.534845666292604,2.124533118256049,0.01,-0.00,0.01,0.43,-0.01,0.82,
53138.7,49.76670875193577,4.519959562369403,2.156733063182211,0.00,-0.03,0.02,0.42,-0.01,0.81,
53138.7,50.08108824696205,4.52255347810653,2.1458953565574133,0.00,-0.02,0.03,0.42,-0.01,0.80,
53138.7,49.97944977688329,4.52453753808588,2.1541503834551223,0.00,-0.02,0.03,0.42,-0.01,0.82,
53138.8,49.67101871312889,4.475910345424634,2.146688350126722,-0.02,-0.01,0.01,0.42,-0.01,0.81,
53138.8,50.1563365887103,4.495534868160636,2.1330958043853983,-0.01,-0.01,0.01,0.43,-0.01,0.82,
53138.8,50.81716048737867,4.495674148356811,2.1423732539011247,-0.01,-0.01,0.01,0.43,-0.01,0.82,
53138.9,49.8285640973127,4.513831008820484,2.1322597684042903,0.00,-0.01,0.01,0.42,-0.02,0.81,
53138.9,50.06743152988777,4.5160101500116205,2.1302040590501283,0.00,-0.01,0.01,0.42,-0.01,0.81,
53138.9,51.11788825841693,4.480692268626486,2.1251927184847625,0.00,-0.01,0.01,0.42,-0.01,0.82,
53139.0,50.55254494088305,4.513915380174367,2.1666291422017787,-0.01,-0.01,0.00,0.43,-0.01,0.81,
53139.0,50.62130381568614,4.517802401910857,2.166901556365791,-0.01,-0.00,0.00,0.43,-0.01,0.81,
53139.0,49.23095875564481,4.493299070528037,2.1491036252190203,-0.01,-0.00,-0.00,0.43,-0.01,0.82,
53139.1,50.2024959538866,4.482919604749375,2.1365226575696745,-0.01,-0.01,0.01,0.43,-0.02,0.81,
53139.1,50.768191813378586,4.461128992833915,2.1505094317805797,-0.01,-0.01,0.01,0.42,-0.01,0.81,
53139.1,50.94312514952336,4.454514433233651,2.1546016032664386,-0.01,-0.01,0.01,0.42,-0.01,0.82,
53139.2,50.00350187736855,4.512851896806717,2.1397635513148767,-0.00,-0.00,0.01,0.42,-0.01,0.82,
53139.2,49.55310081115005,4.5064896585866965,2.1569297691643907,-0.00,-0.00,0.01,0.42,-0.01,0.82,
53139.2,49.59995665320687,4.514277737656857,2.1647934097157426,-0.00,-0.00,0.01,0.42,-0.01,0.81,
53139.3,49.51742622552186,4.537075720089608,2.145331968963209,-0.00,0.00,0.01,0.43,-0.02,0.81,
53139.3,49.542463604467635,4.523220185289518,2.149338158674195,-0.00,0.00,0.01,0.42,-0.02,0.81,
53139.3,49.6139123633684,4.498205015061029,2.1561161635986124,-0.00,-0.00,0.01,0.42,-0.01,0.81,
53139.4,51.071906171593014,4.503819178639068,2.1342969416092723,0.00,-0.01,0.01,0.42,-0.01,0.81,
53139.4,50.118839771088076,4.5064896585866965,2.1737189856653716,-0.00,-0.01,0.01,0.43,-0.01,0.82,
53139.4,50.73494850692173,4.5123802673601325,2.1653826668774876,0.00,-0.01,0.01,0.43,-0.01,0.81,
53139.5,48.51197790236964,4.503849391135908,2.154602974249479,-0.00,0.01,0.00,0.42,-0.02,0.82,
53139.5,48.35114579821248,4.501312984795008,2.1568020257402,-0.00,0.01,0.00,0.43,-0.01,0.81,
53139.5,50.41547679036667,4.51302085123528,2.1655971592792556,-0.00,0.01,0.01,0.42,-0.01,0.81,
53139.6,51.36289127375911,4.501963203805104,2.153170117913797,-0.01,-0.03,0.01,0.42,-0.01,0.81,
53139.6,50.60737199262574,4.4937966511210785,2.1457480678928227,-0.01,-0.03,0.01,0.42,-0.01,0.81,
53139.6,50.31620514307493,4.490745913084762,2.1428694837874978,-0.01,-0.03,0.01,0.42,-0.01,0.82,
53139.7,49.64748835540424,4.51565354869241,2.1484380187873224,0.01,0.01,0.01,0.42,-0.01,0.81,
53139.7,49.5174494496637,4.495129109068094,2.1453316653330647,0.01,0.01,0.01,0.42,-0.01,0.81,
53139.7,50.09354948493868,4.5212649848492745,2.1507375184940716,0.01,0.00,0.01,0.42,-0.01,0.82,
53139.8,50.34035160783047,4.508523278545589,2.149900849229579,-0.00,-0.03,0.02,0.43,-0.01,0.81,
53139.8,49.72587656341515,4.541800432315835,2.146691355467218,-0.00,-0.03,0.02,0.43,-0.01,0.81,
53139.8,49.80563020382334,4.529069067463988,2.145651955991272,-0.01,-0.03,0.02,0.43,-0.01,0.81,
53139.9,49.79127734854771,4.488109378729874,2.1396285909951747,-0.00,0.01,0.01,0.43,-0.02,0.81,
53139.9,50.058898309890914,4.493797322227,2.1423777369384087,-0.00,0.01,0.01,0.43,-0.01,0.82,
53139.9,50.02366040185384,4.4841034508776065,2.1506968315845225,-0.01,0.01,0.01,0.43,-0.01,0.82,
53140.0,50.01270738522361,4.488247850419045,2.1439235110479893,0.01,-0.00,0.01,0.43,-0.03,0.82,
53140.0,50.02366040185384,4.4841034508776065,2.1506968315845225,0.01,-0.00,0.01,0.43,-0.02,0.82,
53140.0,50.10367651180899,4.501363533520075,2.1778100611153652,0.01,-0.00,0.01,0.43,-0.02,0.81,
53140.1,50.04738754420654,4.507156590378482,2.1255110464029716,0.02,-0.03,0.02,0.43,-0.02,0.81,
53140.1,51.62877685942211,4.520818071329714,2.1419345743234492,0.02,-0.03,0.02,0.44,-0.02,0.81,
53140.1,50.054990760162966,4.514331356884262,2.1651629607263825,0.02,-0.03,0.02,0.44,-0.01,0.82,
53140.2,50.79599787384829,4.497245433317398,2.1407694734126093,0.05,-0.04,0.03,0.43,-0.02,0.82,
53140.2,50.842148853092354,4.499506012694127,2.136222772104438,0.06,-0.04,0.03,0.43,-0.02,0.83,
53140.2,50.92857449408927,4.5036539809690215,2.127495968900389,0.06,-0.04,0.03,0.43,-0.02,0.83,
53140.3,49.46183680374193,4.520354038799702,2.1383681576773137,0.06,-0.03,0.06,0.44,-0.00,0.83,
53140.3,50.82885204290964,4.479940276052374,2.148318644861079,0.05,-0.03,0.06,0.44,-0.00,0.83,
53140.3,50.945611194684865,4.4864140430918695,2.1456560909098816,0.04,-0.04,0.06,0.44,-0.00,0.83,
53140.4,48.86925925364533,4.481080439368418,2.105426394016792,0.04,0.06,0.05,0.41,-0.00,0.82,
53140.4,49.184177333772695,4.524257666736946,2.137627261227706,0.04,0.05,0.05,0.41,-0.00,0.82,
53140.4,49.20645994175968,4.520945168868184,2.137339052617809,0.04,0.05,0.05,0.41,-0.00,0.82,
53140.5,49.73318107662127,4.460783736162098,2.11855961832854,0.06,0.10,0.03,0.43,0.01,0.83,
53140.5,49.782104214265594,4.4516810222742,2.110216278608343,0.05,0.10,0.03,0.43,0.01,0.83,
53140.5,49.89557996456199,4.469643734687328,2.1278694867646415,0.04,0.10,0.04,0.43,0.00,0.83,
53140.6,50.26246412582654,4.487977935925282,2.126839109488259,0.11,0.33,-0.03,0.40,0.05,0.85,
53140.6,50.8916702417989,4.516216301396309,2.1240165081098956,0.11,0.33,-0.03,0.39,0.06,0.84,
53140.6,49.567032390491164,4.491683272431732,2.1279575380926614,0.11,0.32,-0.02,0.39,0.08,0.83,
53140.7,48.12249577900132,4.5064896585866965,2.1105175598901074,0.03,0.10,-0.06,0.39,0.05,0.83,
53140.7,48.407111047861555,4.516987530511512,2.119300008597812,0.03,0.10,-0.06,0.39,0.05,0.84,
53140.7,49.08148428888433,4.540405248070428,2.1389595873367684,0.03,0.11,-0.06,0.39,0.04,0.83,
53140.8,49.83423522037837,4.534845666292604,2.1016601470859486,0.01,0.09,-0.09,0.41,0.02,0.87,
53140.8,49.65240477559974,4.5275860598096465,2.1012411494032106,0.02,0.11,-0.10,0.41,0.01,0.87,
53140.8,49.05212125892213,4.50337303523421,2.0992025820604576,0.02,0.12,-0.11,0.41,0.01,0.87,
53140.9,48.311109488398216,4.561576096034425,2.112281652665027,-0.02,-0.01,-0.02,0.41,0.00,0.84,
53140.9,50.539494457305366,4.538941738285393,2.0859677088039277,-0.01,0.02,-0.01,0.42,0.01,0.85,
53140.9,50.43394392668493,4.538113795806916,2.0905764285862154,-0.01,0.04,-0.01,0.42,0.01,0.85,
53141.0,47.08890315137952,4.550788675174308,2.094776418364912,0.04,0.38,0.02,0.40,-0.00,0.85,
53141.0,47.52398236680087,4.563474860961948,2.1045816842525573,0.06,0.43,0.03,0.40,-0.00,0.85,
53141.0,48.15196880710071,4.581637741905936,2.118400583789336,0.07,0.48,0.03,0.39,0.00,0.86,
53141.1,47.77522893718041,4.555949099189366,2.0797706189809215,0.07,0.37,0.03,0.31,0.05,0.86,
53141.1,47.96558870690529,4.574343172886062,2.0962547133905147,0.07,0.36,0.04,0.31,0.05,0.86,
53141.1,48.01924197652437,4.584142954891283,2.1004264093023277,0.07,0.35,0.04,0.31,0.05,0.87,
53141.2,47.22681547595602,4.598071138180266,2.088941319244069,0.04,0.28,0.00,0.29,0.05,0.89,
53141.2,47.93032651672634,4.600643620358435,2.0901803196338995,0.03,0.28,-0.00,0.29,0.05,0.89,
53141.2,49.876151615777246,4.607839060682574,2.0935138199005197,0.03,0.27,-0.01,0.29,0.05,0.89,
53141.3,48.30468507298231,4.587288496189242,2.1041676850877953,0.04,0.43,-0.01,0.29,0.03,0.86,
53141.3,48.22421901907796,4.5905951810239,2.099139990717883,0.04,0.43,-0.01,0.29,0.03,0.86,
53141.3,47.86335341365041,4.6044230455890816,2.0773093816663986,0.04,0.44,-0.01,0.28,0.02,0.86,
53141.4,47.57486416165579,4.607436234306342,2.0847755008688096,0.03,0.44,0.02,0.24,0.03,0.85,
53141.4,47.488290135569216,4.607182752677275,2.085805090387173,0.03,0.44,0.02,0.23,0.03,0.85,
53141.4,47.25100422213268,4.6310602528048745,2.0808723467014145,0.03,0.43,0.01,0.22,0.03,0.84,
53141.5,48.57585717205616,4.6425709296097555,2.0731787172737834,0.03,0.40,-0.07,0.16,0.04,0.85,
53141.5,47.54684637281426,4.658903219821198,2.0875255876219763,0.03,0.38,-0.08,0.16,0.04,0.84,
53141.5,46.965461777778785,4.668809789400816,2.096295897553178,0.03,0.36,-0.09,0.16,0.05,0.83,
53141.6,47.464046393033115,4.670204662356965,2.0776398877936257,-0.06,-0.01,-0.19,0.16,0.05,0.84,
53141.6,47.82750777533782,4.662548493895672,2.05396358662668,-0.06,-0.02,-0.19,0.16,0.04,0.85,
53141.6,47.874486942420596,4.6558322330004955,2.051092100419428,-0.06,-0.04,-0.20,0.17,0.04,0.85,
53141.7,48.34312464042844,4.698857042871821,2.083642471624464,0.01,-0.11,-0.13,0.21,0.04,0.89,
53141.7,48.46544748581199,4.703393010945004,2.0831684969129434,0.02,-0.10,-0.12,0.21,0.04,0.89,
53141.7,48.87719406839963,4.718955490130087,2.081482530152879,0.03,-0.09,-0.12,0.22,0.05,0.90,
53141.8,47.028916636469525,4.710935140846841,2.070872320086975,0.11,0.06,-0.03,0.19,0.07,0.91,
53141.8,47.18354480112744,4.686439507323836,2.061137500717988,0.12,0.06,-0.02,0.19,0.07,0.91,
53141.8,47.481681730958094,4.688231001652239,2.0644732347939128,0.12,0.06,-0.02,0.19,0.07,0.91,
53141.9,46.996277512160475,4.706854869413265,2.056516644724418,0.06,0.03,-0.08,0.16,0.08,0.90,
53141.9,47.24175060261844,4.715021812980037,2.0564065891537036,0.05,0.02,-0.08,0.16,0.08,0.90,
53141.9,47.78025638273617,4.696056058637332,2.083550636731842,0.05,0.01,-0.09,0.16,0.08,0.90,
53142.0,48.168705608517236,4.698968547630599,2.061986331838646,-0.01,-0.01,-0.20,0.17,0.11,0.93,
53142.0,48.02089336944909,4.706046570715067,2.05185195693569,-0.02,-0.00,-0.20,0.17,0.11,0.93,
53142.0,47.92606389012142,4.71098185185749,2.0448948141947865,-0.02,0.01,-0.20,0.17,0.10,0.93,
53142.1,47.27905350152433,4.748173793882247,2.0638973209271874,-0.13,0.11,-0.31,0.17,0.06,0.93,
53142.1,47.76252610572435,4.771910233331556,2.058465652708633,-0.13,0.12,-0.31,0.17,0.06,0.92,
53142.1,47.290622749124374,4.748923123246292,2.053472436442976,-0.13,0.12,-0.30,0.17,0.05,0.93,
53142.2,48.295118800972006,4.759399236674496,2.072356266554477,-0.11,0.19,-0.21,0.15,0.02,0.91,
53142.2,48.16385574266246,4.765693901779643,2.0724299208344914,-0.10,0.19,-0.20,0.14,0.02,0.91,
53142.2,47.609177686660374,4.792963972979351,2.072351387561107,-0.10,0.20,-0.19,0.13,0.02,0.91,
53142.3,47.7687146571896,4.792963972979351,2.0784088592802474,-0.01,0.23,-0.07,0.10,0.05,0.91,
53142.3,46.367100405352076,4.791315144749559,2.075482199766446,-0.00,0.23,-0.06,0.09,0.06,0.92,
53142.3,46.3481294120917,4.7923659888844,2.0705387644728286,-0.00,0.23,-0.05,0.09,0.06,0.91,
53142.4,47.712592677405404,4.824502788990202,2.0445993700560106,0.07,0.30,-0.08,0.04,0.09,0.95,
53142.4,47.60474871270722,4.820231069802224,2.0443445829037072,0.08,0.30,-0.08,0.04,0.09,0.96,
53142.4,47.07470764646341,4.82177716670683,2.050123000431192,0.08,0.30,-0.09,0.03,0.09,0.95,
53142.5,46.550885061403505,4.837013937130184,2.047983458918968,0.05,0.32,-0.20,0.01,0.12,0.96,
53142.5,47.79974163110089,4.827256648612156,2.0345212570372713,0.04,0.33,-0.21,0.01,0.11,0.95,
53142.5,46.58346702425658,4.821319729795244,2.0387023646349296,0.04,0.33,-0.21,0.02,0.11,0.95,
53142.6,46.009635947266524,4.85219892678659,2.025566449128103,0.01,0.28,-0.40,-0.04,0.10,0.91,
53142.6,46.232993630090625,4.863201864734954,2.032123186841339,0.01,0.26,-0.40,-0.03,0.09,0.91,
53142.6,47.063737633128966,4.900936046709425,2.0543196275789413,0.01,0.24,-0.40,-0.03,0.09,0.91,
53142.7,47.06018911989199,4.940288822383876,1.9950059134499374,0.15,0.35,-0.38,0.03,0.06,0.91,
53142.7,47.03502631018718,4.935772361713275,1.9987499744691641,0.15,0.37,-0.37,0.03,0.07,0.91,
53142.7,46.91942987718414,4.910526930595584,2.0198891581036005,0.15,0.39,-0.36,0.03,0.06,0.91,
53142.8,47.48841542944974,4.941396701770254,1.9870196719585764,0.08,0.46,-0.32,-0.02,0.09,0.90,
53142.8,46.38684835166105,4.996173693922543,1.979146081513156,0.08,0.46,-0.32,-0.02,0.09,0.90,
53142.8,46.351039902034564,4.9987186525491385,1.9761912001836413,0.08,0.45,-0.32,-0.03,0.09,0.90,
53142.9,46.10608745057424,4.996693500997033,1.978944952662814,0.01,0.40,-0.24,-0.07,0.12,0.89,
53142.9,46.27054570674523,5.0083861918621615,1.9710638531800586,0.01,0.41,-0.24,-0.07,0.12,0.89,
53142.9,47.19531650492451,5.015287526217842,1.9627876282672567,0.01,0.42,-0.25,-0.08,0.12,0.88,
53143.0,47.20730981532415,5.008614694765607,1.9423669963573136,-0.09,0.22,-0.32,-0.13,0.13,0.90,
53143.0,47.081040770144405,5.048547759566084,1.9406771610237616,-0.09,0.22,-0.31,-0.13,0.13,0.90,
53143.0,46.72092250801562,5.047512774409103,1.9436674366979554,-0.09,0.21,-0.30,-0.13,0.13,0.90,
53143.1,46.49396304898089,5.043863701523585,1.9650680530754285,0.05,0.21,-0.27,-0.15,0.07,0.91,
53143.1,46.559739045660464,5.046696706845591,1.9607621125503516,0.07,0.22,-0.28,-0.16,0.07,0.91,
53143.1,46.89156960478078,5.058676707230408,1.9422442927593642,0.08,0.24,-0.28,-0.16,0.08,0.91,
53143.2,45.93700142586583,5.0779098679514885,1.9302748436413788,0.19,0.25,-0.33,-0.18,0.08,0.86,
53143.2,46.03325971512337,5.083676646527831,1.9292571340686002,0.19,0.24,-0.33,-0.19,0.08,0.87,
53143.2,46.293655072806686,5.1410714215285145,1.9202446582212611,0.19,0.23,-0.34,-0.19,0.08,0.87,
53143.3,42.94657262227103,5.108334265923284,1.8989131325290405,0.07,-0.08,-0.25,-0.18,0.07,0.93,
53143.3,43.6222168166635,5.122967190498384,1.879175916638407,0.07,-0.06,-0.24,-0.17,0.08,0.94,
53143.3,43.76723546215822,5.125430622414188,1.8771619298855435,0.07,-0.03,-0.23,-0.17,0.07,0.94,
53143.4,44.20598262678933,5.165306019536627,1.881142750265866,0.11,0.36,-0.27,-0.25,0.05,0.89,
53143.4,44.280780255094875,5.15237048541572,1.8827358779309185,0.12,0.35,-0.27,-0.26,0.05,0.89,
53143.4,44.34762789597657,5.141684389341121,1.8841455272836563,0.12,0.34,-0.26,-0.26,0.05,0.90,
53143.5,44.43548694455817,5.1704787607062705,1.8554828490266535,0.07,0.06,-0.17,-0.28,0.08,0.90,
53143.5,45.160719657684815,5.156698840914983,1.8627886421482909,0.07,0.04,-0.16,-0.28,0.07,0.88,
53143.5,44.72593095733168,5.17023474814501,1.835700512521755,0.07,0.01,-0.15,-0.29,0.06,0.87,
53143.6,43.73020352113628,5.175290241299319,1.8575822183294042,-0.03,-0.90,0.20,-0.14,0.05,0.89,
53143.6,43.604198192375925,5.170714659853807,1.84149573898412,-0.02,-0.88,0.21,-0.13,0.05,0.90,
53143.6,43.969176703686415,5.171608107158664,1.837542146945734,-0.01,-0.85,0.23,-0.12,0.05,0.90,
53143.7,44.08477514970446,5.151131082184036,1.8344753732513281,-0.00,-0.20,0.29,-0.06,0.12,0.89,
53143.7,45.036414155658534,5.123687237394243,1.8536608520921207,-0.00,-0.18,0.28,-0.06,0.12,0.90,
53143.7,45.00795596336274,5.121686024516584,1.8536132555354492,-0.00,-0.17,0.28,-0.07,0.12,0.89,
53143.8,45.462717692632495,5.094545171982246,1.8340393467104377,-0.03,0.10,0.41,-0.09,0.18,0.89,
53143.8,44.809799151524885,5.091266135820753,1.8301098922325116,-0.03,0.09,0.41,-0.09,0.19,0.89,
53143.8,45.565704208318785,5.0778338409143275,1.8322941789252105,-0.03,0.08,0.41,-0.10,0.19,0.90,
53143.9,45.2609732551124,5.083256590189981,1.8313515611224087,-0.04,-1.37,0.31,-0.20,0.19,0.76,
53143.9,44.47773487937532,5.069700547148593,1.7998745351402963,-0.05,-1.52,0.34,-0.18,0.19,0.79,
53143.9,43.78684848216414,5.056462846768049,1.769419255926116,-0.06,-1.65,0.37,-0.18,0.19,0.82,
53144.0,45.96128044343412,5.002968131454021,1.8012848606736762,-0.05,-1.19,0.18,0.12,0.16,0.95,
53144.0,45.72379905475922,4.940778243989888,1.8209712893798684,-0.05,-1.18,0.18,0.13,0.16,0.95,
53144.0,45.5943264014285,4.9403613571615566,1.8300834292920964,-0.05,-1.16,0.18,0.13,0.15,0.96,
53144.1,44.96641858098107,4.954607964017712,1.7845793611948217,0.02,-0.48,0.13,0.15,0.13,0.91,
53144.1,45.09693226817097,4.956542651948638,1.7816828624933552,0.04,-0.52,0.14,0.16,0.12,0.91,
53144.1,46.41427151211144,4.969466621359581,1.7690139723583316,0.05,-0.55,0.16,0.17,0.12,0.90,
53144.2,46.216544656648665,4.937304528720185,1.8033230296692278,0.12,-0.28,0.19,0.22,0.11,0.90,
53144.2,44.71866947931255,4.945045992238299,1.8045909576577903,0.12,-0.29,0.20,0.22,0.11,0.91,
53144.2,44.59641913876045,4.945128831387891,1.8029390687965388,0.12,-0.30,0.23,0.22,0.11,0.91,
53144.3,46.00142280408293,4.932734169899392,1.7462550317106285,0.06,-0.33,0.18,0.15,0.16,0.87,
53144.3,45.36150350241932,4.927077171519839,1.7436071406781048,0.05,-0.40,0.17,0.14,0.16,0.86,
53144.3,46.770814617665145,4.90535489035908,1.7472473537691304,0.03,-0.47,0.16,0.13,0.16,0.86,
53144.4,46.371097679481345,4.869424172428072,1.754484445040354,-0.03,-1.09,0.14,0.29,0.13,0.84,
53144.4,46.81758857523527,4.87660965007057,1.7509758102979975,-0.02,-1.10,0.12,0.29,0.13,0.83,
53144.4,47.31414798979265,4.884561402242626,1.7473466470180476,-0.01,-1.11,0.10,0.28,0.13,0.81,
53144.5,46.88956813620702,4.87590494823996,1.7271171456319305,-0.01,-1.05,0.16,0.45,0.14,0.89,
53144.5,46.98445487605448,4.885821029206319,1.7485986871366095,-0.01,-1.03,0.15,0.44,0.14,0.88,
53144.5,46.800518159524685,4.884589074099967,1.7360758920935566,-0.02,-1.01,0.14,0.45,0.14,0.87,
53144.6,48.240785648660406,4.819438965465009,1.7519230998290392,0.13,-0.21,0.06,0.49,0.12,0.84,
53144.6,48.11759033866929,4.819244647933466,1.7496458036201252,0.14,-0.14,0.06,0.49,0.12,0.84,
53144.6,45.86756915294291,4.870599127088648,1.7343851605365275,0.15,-0.08,0.06,0.50,0.13,0.84,
53144.7,47.25661964211998,4.811431904739331,1.7909525758421925,0.07,0.36,0.11,0.44,0.14,0.78,
53144.7,48.1382311681682,4.845316462982513,1.7390231684372475,0.06,0.35,0.12,0.43,0.13,0.78,
53144.7,48.32772806578021,4.851352101552675,1.7295496188954411,0.06,0.33,0.12,0.42,0.13,0.77,
53144.8,47.41193415164582,4.836131605136594,1.7577008202550817,0.05,0.19,0.11,0.37,0.12,0.78,
53144.8,47.42469188091789,4.8327219419088,1.7612993459699724,0.04,0.19,0.12,0.38,0.13,0.80,
53144.8,48.00895853900603,4.825674316401344,1.7697782456260505,0.04,0.20,0.12,0.38,0.13,0.80,
53144.9,46.73075004747944,4.80034526475551,1.7622016702215868,-0.01,0.23,0.03,0.38,0.16,0.85,
53144.9,47.40331001101084,4.813977712439755,1.7504405218727102,-0.01,0.24,0.03,0.39,0.16,0.84,
53144.9,47.83015575972966,4.828988306974646,1.7551967229783756,-0.00,0.26,0.03,0.39,0.17,0.85,
53145.0,47.69149819412261,4.793217476606671,1.811090039443766,-0.04,0.26,-0.03,0.41,0.15,0.85,
53145.0,48.34142219670415,4.798183378433566,1.782335346437827,-0.03,0.28,-0.03,0.41,0.15,0.84,
53145.0,47.925995034010505,4.801636247823394,1.7893240312939844,-0.02,0.30,-0.04,0.40,0.15,0.84,
53145.1,46.68105718597213,4.797155573809128,1.7987675837479127,-0.03,0.40,-0.04,0.38,0.16,0.88,
53145.1,46.744262749561045,4.793488245339662,1.7973560479010697,-0.03,0.42,-0.04,0.39,0.16,0.87,
53145.1,47.62529894919295,4.781282587832779,1.8036547164279573,-0.03,0.43,-0.04,0.38,0.15,0.87,
53145.2,46.57082133697021,4.779355098360031,1.820091526756756,-0.14,0.23,-0.02,0.34,0.13,0.91,
53145.2,46.073728956966356,4.805312183664462,1.8410370328771795,-0.15,0.24,-0.02,0.34,0.13,0.91,
53145.2,45.96087684106995,4.811810158247054,1.8462363938130029,-0.15,0.26,-0.01,0.34,0.13,0.91,
53145.3,47.00292118581567,4.787432398027977,1.877030988603409,-0.20,0.68,0.03,0.27,0.12,0.92,
53145.3,46.81693069819934,4.793202469736188,1.880080724066439,-0.19,0.69,0.04,0.26,0.12,0.90,
53145.3,46.61075412391436,4.7999867777805925,1.8835231274476476,-0.19,0.71,0.05,0.26,0.12,0.91,
53145.4,45.33525559650017,4.787301634460334,1.927017583313815,-0.21,0.70,0.06,0.17,0.07,0.89,
53145.4,46.512800388710204,4.810646641954348,1.9609444512703031,-0.21,0.70,0.07,0.17,0.06,0.89,
53145.4,46.83396417131482,4.80505446386009,1.9597408396668083,-0.20,0.69,0.08,0.17,0.07,0.89,
53145.5,46.242551832700585,4.7853037839726245,1.9729644349115403,-0.22,0.58,0.12,0.15,0.05,0.91,
53145.5,46.164542670755445,4.751701254811507,1.9997325291036037,-0.22,0.58,0.13,0.14,0.05,0.92,
53145.5,46.169855966853525,4.748986992094305,1.9944465795106965,-0.22,0.59,0.13,0.15,0.05,0.94,
53145.6,45.390609160926665,4.811017352617265,2.0075443472225496,-0.18,0.88,0.14,0.08,0.05,0.93,
53145.6,46.21571702354081,4.795809391478992,2.0193011476735654,-0.18,0.89,0.13,0.08,0.05,0.94,
53145.6,46.3802307023154,4.792963972979351,2.021663261982276,-0.18,0.90,0.12,0.08,0.05,0.95,
53145.7,46.871775089066126,4.816431553552936,2.0586438300414542,-0.24,0.90,0.10,-0.01,0.03,0.90,
53145.7,46.19767310157515,4.808111381484767,2.0683722068857833,-0.24,0.89,0.10,-0.02,0.03,0.91,
53145.7,46.84843754064803,4.8507278181731905,2.0608425939832014,-0.24,0.90,0.10,-0.03,0.03,0.92,
53145.8,45.66395734055471,4.899018648402289,2.0622701835434967,-0.28,0.87,0.09,-0.14,0.01,0.90,
53145.8,46.0208278934658,4.901732715796239,2.068728509633644,-0.28,0.88,0.09,-0.14,0.00,0.89,
53145.8,46.49202727350142,4.9056844233232315,2.077193111160991,-0.29,0.89,0.09,-0.14,-0.00,0.88,
53145.9,46.249571889910506,4.930075045094263,2.1083133513009713,-0.32,0.92,0.07,-0.18,-0.02,0.91,
53145.9,46.244944588570974,4.932560657367912,2.1093802908790784,-0.32,0.93,0.06,-0.19,-0.03,0.90,
53145.9,46.50494382321088,4.930868116341987,2.106043080803634,-0.32,0.94,0.06,-0.19,-0.03,0.90,
53146.0,45.376546805591104,4.925211511948771,2.1169816504905006,-0.27,0.81,0.20,-0.29,-0.08,0.85,
53146.0,47.184278101927134,4.948545745528137,2.1016998674812113,-0.26,0.81,0.20,-0.29,-0.08,0.86,
53146.0,47.474457342870174,4.954874327217865,2.105198337529761,-0.27,0.81,0.19,-0.29,-0.08,0.87,
53146.1,47.18166699047416,4.988387225373291,2.1059158183403066,-0.23,0.68,0.14,-0.38,-0.06,0.80,
53146.1,46.697218332573094,5.035561784138414,2.1120771185338167,-0.23,0.67,0.13,-0.39,-0.06,0.81,
53146.1,46.58903411748305,5.04721845604116,2.113473684327103,-0.23,0.67,0.12,-0.39,-0.06,0.81,
53146.2,46.64169057827986,5.04237210396374,2.128888882545354,-0.24,0.46,0.09,-0.43,-0.07,0.77,
53146.2,46.239437712844214,5.058361764917011,2.1094514522878,-0.24,0.45,0.09,-0.43,-0.07,0.77,
53146.2,47.076245602214286,5.060173664120333,2.132395402673512,-0.23,0.43,0.08,-0.43,-0.08,0.78,
53146.3,47.48615166551191,5.04170628325827,2.1185646973695316,-0.13,0.23,0.15,-0.44,-0.11,0.81,
53146.3,47.12753971936154,5.0546575705503916,2.124959135791401,-0.13,0.24,0.15,-0.44,-0.11,0.80,
53146.3,46.59273870465225,5.07502327454854,2.1346153909267773,-0.13,0.25,0.14,-0.44,-0.11,0.79,
53146.4,45.691209220155244,5.08010995298951,2.157354951027486,-0.10,0.29,0.07,-0.53,-0.12,0.77,
53146.4,46.98650231715487,5.091850276883754,2.1589671946049016,-0.09,0.26,0.07,-0.53,-0.12,0.78,
53146.4,47.08159513015675,5.094461341126563,2.1604292019695137,-0.09,0.24,0.07,-0.53,-0.12,0.77,
53146.5,46.796452857027525,5.083358479739974,2.127832261433702,-0.04,0.05,0.05,-0.50,-0.12,0.75,
53146.5,46.61333071128902,5.08550920786643,2.1214458770114413,-0.04,0.07,0.05,-0.50,-0.11,0.75,
53146.5,46.50621571360112,5.120782129116277,2.161462926181774,-0.04,0.08,0.05,-0.51,-0.11,0.76,
53146.6,46.439598404809665,5.127436093366993,2.1323709876065613,-0.04,-0.16,0.04,-0.51,-0.10,0.76,
53146.6,47.613759565906996,5.122842227527583,2.129513485166176,-0.04,-0.16,0.03,-0.50,-0.10,0.76,
53146.6,47.97449009630014,5.121507229647088,2.1287461325041104,-0.04,-0.16,0.03,-0.50,-0.10,0.76,
53146.7,46.73396516453531,5.065304116117225,2.1395477498647697,-0.04,-0.24,-0.15,-0.53,-0.10,0.72,
53146.7,47.405307719705824,5.066396661858637,2.1447747094439102,-0.03,-0.28,-0.17,-0.53,-0.11,0.73,
53146.7,46.51316372813184,5.063365246569352,2.1572271687818727,-0.03,-0.34,-0.18,-0.54,-0.11,0.71,
53146.8,47.10136834530393,5.095098313561758,2.1745198941470494,0.03,-0.98,-0.28,-0.43,-0.10,0.71,
53146.8,46.84618340911029,5.080177442275483,2.1751649604003633,0.03,-0.99,-0.30,-0.43,-0.10,0.70,
53146.8,46.41553511487291,5.053527227888644,2.176074110035933,0.03,-1.01,-0.32,-0.42,-0.10,0.71,
53146.9,47.34376516501407,5.007182213206452,2.2136043063705175,0.26,-1.88,-0.56,-0.27,-0.13,0.80,
53146.9,45.453358511775555,4.982922467296841,2.218097543681135,0.27,-1.91,-0.56,-0.25,-0.13,0.81,
53146.9,46.08799952265232,4.9938714340044195,2.2210190014469795,0.29,-1.93,-0.56,-0.23,-0.14,0.81,
53147.0,46.385845901524746,4.916362716496544,2.175468468310422,0.42,-1.87,-0.60,-0.04,-0.11,0.89,
53147.0,46.382524726452736,4.908964111744666,2.1721149732020066,0.43,-1.84,-0.59,-0.03,-0.12,0.88,
53147.0,45.83565097170542,4.896147580372654,2.1982651164000035,0.44,-1.81,-0.58,-0.01,-0.12,0.89,
53147.1,46.04920086168706,4.804969434281544,2.163936236669313,0.39,-1.70,-0.60,0.12,-0.03,0.88,
53147.1,45.942509726831425,4.792439946615476,2.1718227880408283,0.39,-1.74,-0.58,0.13,-0.03,0.87,
53147.1,45.908058116195676,4.78788217783759,2.1747172001151736,0.39,-1.76,-0.57,0.14,-0.03,0.86,
53147.2,45.393273730807294,4.79535761621435,2.1294375469772087,0.43,-1.23,-0.49,0.34,-0.05,0.93,
53147.2,45.69981181580511,4.796126794637263,2.1201109508095692,0.43,-1.16,-0.52,0.33,-0.05,0.94,
53147.2,46.16661997590901,4.7971199030357585,2.106359484968686,0.42,-1.09,-0.54,0.32,-0.05,0.93,
53147.3,45.238052566395915,4.797360594609739,2.0811968665688365,0.38,-0.90,-0.40,0.40,0.03,0.86,
53147.3,45.83075168486766,4.790492778496269,2.039667979294549,0.36,-0.91,-0.40,0.40,0.03,0.86,
53147.3,46.2562795736968,4.797612833368508,2.0297015720339138,0.35,-0.94,-0.40,0.41,0.03,0.86,
53147.4,46.193680303695224,4.799637366960952,1.9755330935740074,0.22,-1.12,-0.15,0.53,0.13,0.90,
53147.4,45.898453132976066,4.829136643946221,1.982327881643133,0.21,-1.06,-0.12,0.54,0.13,0.89,
53147.4,46.02103975357358,4.826523766308391,1.9792706408428458,0.20,-1.00,-0.09,0.56,0.13,0.88,
53147.5,46.74186346306702,4.805267262138427,1.9354648247563857,0.06,-0.09,-0.10,0.51,0.13,0.78,
53147.5,46.539610011258155,4.805608322637075,1.933674503376243,0.05,-0.04,-0.11,0.51,0.13,0.78,
53147.5,46.8627239925295,4.801369312070153,1.942484072955424,0.05,0.01,-0.12,0.50,0.13,0.79,
53147.6,46.33097128271757,4.836857617751576,1.912152440484469,-0.01,-0.14,0.01,0.50,0.14,0.80,
53147.6,47.494518631101,4.839300306021465,1.9193226393929252,-0.00,-0.13,-0.01,0.49,0.14,0.81,
53147.6,47.99254212896,4.840570205984008,1.9222043747671298,-0.00,-0.13,-0.02,0.50,0.14,0.80,
53147.7,47.557831111185045,4.858683598881381,1.8770907740364227,0.00,-0.17,-0.01,0.53,0.08,0.76,
53147.7,47.00798549182894,4.842381081642003,1.8877244820301942,0.01,-0.17,-0.01,0.54,0.08,0.76,
53147.7,46.112112291674514,4.813383073723113,1.9062500867815195,0.01,-0.16,-0.02,0.54,0.08,0.77,
53147.8,46.90779466144193,4.89045509937756,1.9225084690772236,0.01,-0.23,-0.04,0.49,0.07,0.76,
53147.8,46.931403132657344,4.881843016640921,1.9076109129788168,0.01,-0.25,-0.05,0.50,0.08,0.76,
53147.8,46.98418776567283,4.883644395610536,1.9027115425491254,0.01,-0.26,-0.06,0.50,0.09,0.76,
53147.9,45.34929657668352,4.913766059327549,1.8691433056697355,-0.06,-0.88,0.04,0.63,0.06,0.86,
53147.9,47.29267596573491,4.898529453170296,1.8864179750102847,-0.08,-0.86,0.09,0.65,0.05,0.84,
53147.9,46.37678406271828,4.902770538237306,1.8799442407110476,-0.13,-0.81,0.12,0.67,0.06,0.80,
53148.0,46.64873953281053,4.901413384404494,1.8909288130789363,-0.12,0.07,-0.09,0.58,0.10,0.71,
53148.0,45.908563471317635,4.919648640816475,1.8932917620444556,-0.12,0.03,-0.09,0.58,0.11,0.72,
53148.0,45.65197147988244,4.926096307072759,1.8942462849957513,-0.12,-0.02,-0.08,0.58,0.12,0.73,
53148.1,44.95213676790014,4.909601339723658,1.8800246867798267,-0.10,-0.04,-0.14,0.65,0.15,0.74,
53148.1,45.41100086983329,4.910466389303865,1.8881346877691945,-0.11,-0.02,-0.16,0.65,0.15,0.72,
53148.1,45.341692734171275,4.917661957876277,1.8705796408497115,-0.13,-0.02,-0.18,0.63,0.15,0.70,
53148.2,44.46252579420113,4.926828076031454,1.9352939561748634,-0.15,0.26,-0.22,0.58,0.11,0.75,
53148.2,43.82869379755687,4.929303168940271,1.9449812506832524,-0.14,0.32,-0.23,0.59,0.11,0.75,
53148.2,42.59085582610427,4.934670906290382,1.9647965635617328,-0.14,0.38,-0.24,0.60,0.11,0.75,
53148.3,44.81968875393938,4.926879313859672,1.9562190130344208,0.03,0.46,-0.30,0.53,0.11,0.70,
53148.3,42.28290671181441,4.939857057195815,1.9550377379101382,0.03,0.45,-0.30,0.54,0.11,0.70,
53148.3,42.75017309906475,4.932865747232095,1.957179369967878,0.03,0.44,-0.30,0.53,0.11,0.71,
53148.4,42.55132547876741,4.940340078658394,1.9805053691648706,-0.13,0.18,-0.19,0.51,0.12,0.73,
53148.4,42.54843945434427,4.936593027719424,1.9823291800379481,-0.15,0.21,-0.20,0.52,0.12,0.75,
53148.4,41.675586378598204,4.97403912920967,1.987024390678935,-0.15,0.24,-0.20,0.51,0.13,0.77,
53148.5,42.541473881378394,4.975866863311207,1.9696116732911746,-0.21,0.35,-0.17,0.51,0.13,0.73,
53148.5,42.3822380249085,4.994516337659722,2.007870534244289,-0.22,0.34,-0.17,0.51,0.13,0.75,
53148.5,42.34080065374295,5.002487182597076,2.0237678827771104,-0.22,0.32,-0.17,0.51,0.14,0.77,
53148.6,42.03105875421175,4.967966115247115,2.049748697624265,-0.23,0.09,-0.17,0.47,0.08,0.83,
53148.6,42.1282933430729,4.955617240112864,2.0485505411762217,-0.24,0.07,-0.13,0.48,0.08,0.83,
53148.6,41.63670135829687,4.962032524259666,2.0516911195264957,-0.24,0.06,-0.10,0.49,0.09,0.83,
53148.7,41.87494955220841,4.980438942017642,2.078816430110246,-0.28,0.10,-0.02,0.39,0.04,0.84,
53148.7,41.5475871742271,4.994048431268205,2.0945676011039085,-0.29,0.07,0.01,0.40,0.04,0.84,
53148.7,40.84108960348634,5.027466263333178,2.1312523344219088,-0.29,0.05,0.03,0.41,0.03,0.83,
53148.8,42.70304672971238,5.015153899481645,2.188439757073525,-0.57,0.06,0.17,0.38,-0.00,0.77,
53148.8,42.50481502135964,5.012958958693854,2.1828177510122173,-0.58,0.04,0.20,0.38,-0.01,0.78,
53148.8,41.8560139048142,5.005529042678658,2.163759180544354,-0.59,0.02,0.22,0.38,-0.01,0.78,
53148.9,42.79794037100384,5.0094473996206865,2.2355332783820656,-0.48,0.07,0.26,0.37,-0.04,0.81,
53148.9,42.76804180693804,5.011019539989326,2.2411437633498767,-0.47,0.04,0.26,0.36,-0.05,0.81,
53148.9,43.09975521972254,4.99499012863195,2.25017507324804,-0.45,0.01,0.27,0.36,-0.05,0.82,
53149.0,42.339155636361006,4.981676522389994,2.2392297153884853,-0.05,-0.21,0.21,0.36,-0.06,0.80,
53149.0,42.35494540192444,5.005049779801576,2.2626192337117956,-0.03,-0.23,0.20,0.36,-0.06,0.80,
53149.0,42.37561916951775,5.016916732113503,2.2742222688178875,-0.02,-0.25,0.19,0.36,-0.07,0.79,
53149.1,41.837774797424395,4.963180197552971,2.281386661304736,0.10,-0.30,0.14,0.42,-0.07,0.74,
53149.1,41.58361335911058,4.9656690522042775,2.2692598459254563,0.10,-0.31,0.14,0.42,-0.07,0.73,
53149.1,42.89488314472951,4.938412917480546,2.267945474253909,0.11,-0.32,0.13,0.41,-0.07,0.73,
53149.2,43.18146940529004,4.9047029793827726,2.278747874609521,0.16,-0.21,0.33,0.50,-0.09,0.72,
53149.2,42.95228631865829,4.91910160818286,2.293832749815522,0.16,-0.23,0.33,0.49,-0.08,0.73,
53149.2,43.232898352990404,4.910509440433802,2.292116657344058,0.17,-0.25,0.33,0.49,-0.07,0.73,
53149.3,44.01481227950427,4.845480783595466,2.3341634791691757,0.23,-0.30,0.53,0.48,-0.09,0.78,
53149.3,45.59941008390349,4.855895807817194,2.2914513194450983,0.24,-0.32,0.54,0.47,-0.07,0.78,
53149.3,45.48851393483854,4.849605235737514,2.2927153109432235,0.24,-0.33,0.55,0.47,-0.08,0.78,
53149.4,44.75448580868738,4.766805305951855,2.2845594748721822,0.20,-0.10,0.57,0.48,-0.07,0.77,
53149.4,45.22109574081548,4.770123179073073,2.2742062750683907,0.20,-0.10,0.56,0.47,-0.07,0.77,
53149.4,45.88292601829138,4.745881605884525,2.2759769601684168,0.20,-0.10,0.55,0.47,-0.06,0.77,
53149.5,46.02468142203702,4.7006524301025205,2.3077439970113067,0.16,-0.20,0.51,0.46,-0.09,0.77,
53149.5,46.8534438435426,4.666784569670781,2.2949361065332208,0.16,-0.23,0.50,0.46,-0.10,0.77,
53149.5,47.34123783764003,4.648467200531264,2.2875393273088296,0.16,-0.27,0.50,0.46,-0.10,0.78,
53149.6,46.11932133065273,4.608608532443092,2.2850318775109013,0.24,-0.31,0.45,0.51,-0.16,0.71,
53149.6,47.12909292570779,4.583007356036445,2.263290910064177,0.24,-0.34,0.43,0.52,-0.17,0.71,
53149.6,46.28175234366132,4.588626919394755,2.265285551841383,0.23,-0.35,0.41,0.52,-0.17,0.73,
53149.7,46.520303094455436,4.5684199165482235,2.250750932866332,0.15,-0.50,0.44,0.53,-0.11,0.68,
53149.7,46.5762965466341,4.555313788367954,2.2497792419131546,0.14,-0.52,0.46,0.54,-0.12,0.70,
53149.7,46.79492493850161,4.512577317853644,2.24601469484074,0.14,-0.53,0.48,0.55,-0.14,0.71,
53149.8,47.09222547300138,4.4614741031005565,2.2455840426810516,0.37,-0.24,0.49,0.55,-0.07,0.71,
53149.8,49.04392826844114,4.456322318965281,2.253198544479723,0.38,-0.22,0.50,0.55,-0.07,0.69,
53149.8,48.73675614974801,4.4520416906726314,2.25144742387622,0.40,-0.20,0.52,0.55,-0.08,0.68,
53149.9,47.367800244469876,4.422687758050525,2.2037651960621982,0.70,-0.26,0.27,0.53,-0.03,0.71,
53149.9,47.83990175575197,4.4159525647960685,2.193710174128479,0.71,-0.32,0.29,0.52,-0.02,0.71,
53149.9,48.66509426683565,4.4153100832526855,2.1815825150170207,0.72,-0.36,0.31,0.52,-0.03,0.72,
53150.0,47.970337709880674,4.410838492287312,2.1465929644301704,0.97,0.82,0.07,0.54,0.06,0.73,
53150.0,48.69034195813375,4.372383319999479,2.131678015714266,0.95,0.82,0.02,0.52,0.05,0.75,
53150.0,49.414516085862864,4.4202493746509575,2.12249834250132,0.94,0.82,-0.01,0.50,0.06,0.77,
53150.1,49.08002750610476,4.47423435831122,2.1307810994864713,0.77,1.24,-0.20,0.48,0.17,0.80,
53150.1,49.34617411714915,4.482017893806984,2.116698306017903,0.73,1.22,-0.24,0.47,0.18,0.82,
53150.1,50.10913190227905,4.502268952743896,2.079147555538875,0.69,1.20,-0.27,0.45,0.19,0.86,
53150.2,50.184702848577274,4.569781010111498,2.082188927215587,0.04,0.54,-0.14,0.44,0.14,0.86,
53150.2,50.13486411670027,4.567073466444253,2.0768080730907403,0.03,0.63,-0.14,0.46,0.15,0.88,
53150.2,49.92969056583467,4.555645966783363,2.05449188212172,0.04,0.70,-0.16,0.48,0.15,0.90,
53150.3,51.77480758052124,4.639849086152077,2.0613093973847576,0.40,0.40,-0.17,0.27,0.11,0.82,
53150.3,51.164355756717974,4.646584085601086,2.0535166151711737,0.38,0.31,-0.16,0.27,0.12,0.85,
53150.3,51.19262642217139,4.647727867459755,2.0534477422468074,0.35,0.24,-0.14,0.27,0.13,0.88,
53150.4,50.54382454860337,4.638737336793592,2.0443366565384746,-0.04,-0.19,-0.02,0.32,0.09,0.84,
53150.4,50.606154764020545,4.63685251301548,2.0319763496349594,-0.07,-0.25,-0.03,0.33,0.09,0.84,
53150.4,50.64763765468238,4.635853009706403,2.0249672125379568,-0.09,-0.28,-0.05,0.34,0.10,0.85,
53150.5,50.17199418002039,4.638277473711286,2.030045481361449,-0.06,-0.29,0.04,0.32,0.13,0.87,
53150.5,50.83372404221434,4.646789808553651,2.041416514327465,-0.07,-0.30,0.06,0.33,0.14,0.88,
53150.5,49.970925546761684,4.649646582229284,2.0502203634658236,-0.07,-0.28,0.08,0.34,0.14,0.89,
53150.6,50.917915314749486,4.642770383240489,2.0518409631040404,-0.11,-0.18,0.06,0.33,0.11,0.83,
53150.6,51.0093844307104,4.635837469182205,2.0509052591717785,-0.11,-0.20,0.08,0.33,0.12,0.83,
53150.6,51.32989479825572,4.613331268010835,2.0476563770959015,-0.11,-0.20,0.09,0.34,0.12,0.83,
53150.7,50.53206605710873,4.645776091889543,2.059413031719854,-0.01,-0.06,0.05,0.37,0.11,0.83,
53150.7,50.32065679221606,4.615211758428373,2.0466105561169634,-0.01,-0.07,0.05,0.37,0.11,0.82,
53150.7,50.3686142354542,4.616675159745298,2.046119983758521,-0.01,-0.08,0.05,0.37,0.12,0.84,
53150.8,51.46096093156442,4.624567907943049,2.05247081943628,-0.03,-0.04,0.05,0.41,0.10,0.84,
53150.8,51.61226792149324,4.620755615792039,2.059477719271297,-0.03,-0.03,0.04,0.42,0.11,0.84,
53150.8,51.14958944116756,4.610137372425939,2.0470570133452686,-0.02,-0.03,0.04,0.42,0.11,0.84,
53150.9,50.27277294918194,4.59346990857418,2.0248445784275466,0.03,-0.06,0.06,0.37,0.10,0.85,
53150.9,50.78311038130689,4.591346954578465,2.039714956475612,0.03,-0.09,0.06,0.37,0.10,0.85,
53150.9,51.12098786212959,4.590193809693335,2.0497687351805127,0.02,-0.11,0.06,0.38,0.10,0.84,
53151.0,50.21687963225114,4.602840542789924,2.0387305696168507,0.09,0.00,0.06,0.39,0.11,0.79,
53151.0,50.87873524371454,4.599248156131357,2.0783693490464454,0.09,0.01,0.06,0.40,0.12,0.80,
53151.0,51.65279179289344,4.583342475823835,2.042907227611386,0.09,0.01,0.07,0.40,0.11,0.79,
53151.1,49.952230180443394,4.580575989481928,2.0317751645751114,0.03,-0.10,0.04,0.41,0.11,0.82,
53151.1,50.3038239103152,4.583107374993833,2.031189324668992,0.02,-0.10,0.04,0.41,0.12,0.82,
53151.1,51.730615693223676,4.592900127477227,2.0291636866653686,0.01,-0.11,0.04,0.41,0.11,0.83,
53151.2,50.734522763104806,4.552755151721296,2.024131302512732,0.02,-0.05,0.05,0.43,0.12,0.82,
53151.2,49.590069570429115,4.581086318940391,2.0537617936391603,0.02,-0.02,0.04,0.43,0.13,0.82,
53151.2,49.619585850750504,4.584138561517371,2.0539049901819855,0.03,-0.01,0.04,0.43,0.12,0.82,
53151.3,50.050944047040716,4.59781098429259,2.0336965894576977,0.04,0.02,0.02,0.39,0.12,0.81,
53151.3,50.57022444087034,4.59346990857418,2.0367513690902435,0.04,0.02,0.02,0.39,0.12,0.81,
53151.3,51.949508178615126,4.580588305057383,2.026656887506639,0.03,0.01,0.02,0.39,0.12,0.82,
53151.4,50.11251939386005,4.611812062929841,2.0301871532218962,0.04,0.10,0.01,0.40,0.12,0.80,
53151.4,50.78398566477428,4.595795089296506,2.0359572186506165,0.04,0.10,0.01,0.39,0.12,0.80,
53151.4,51.31361612671631,4.5835343956909425,2.040375974542404,0.05,0.09,0.01,0.39,0.11,0.81,
53151.5,51.30139374325029,4.573013135541183,2.029596810276831,0.06,0.13,0.03,0.41,0.13,0.81,
53151.5,51.11631735561552,4.579215872256301,2.03466459463411,0.05,0.14,0.03,0.40,0.13,0.81,
53151.5,50.54030965476963,4.600104942800237,2.051946317245366,0.05,0.13,0.02,0.39,0.13,0.81,
53151.6,49.87051734241385,4.615211758428373,2.0287850517280095,0.02,-0.02,0.03,0.38,0.13,0.81,
53151.6,49.838213250476784,4.6146097603707155,2.025974665930759,0.02,-0.03,0.03,0.39,0.13,0.81,
53151.6,49.67293327356459,4.611812062929841,2.0119612087663814,0.02,-0.04,0.03,0.38,0.12,0.81,
53151.7,50.84626731629373,4.601804590654427,2.0340230753472754,0.01,-0.02,0.02,0.41,0.13,0.81,
53151.7,52.325937163131634,4.582376930266426,2.0100005292375145,0.01,-0.00,0.02,0.40,0.13,0.81,
53151.7,52.32604896225206,4.579474881691497,2.008733005306813,0.01,0.01,0.02,0.40,0.13,0.82,
53151.8,51.17445554180327,4.584675589006966,2.0169127026191065,0.01,-0.02,0.02,0.40,0.13,0.80,
53151.8,52.17589960891906,4.572978365041005,2.010716364943251,0.01,-0.02,0.02,0.40,0.14,0.81,
53151.8,51.28850650974349,4.597554149552109,2.040624419229248,0.01,-0.02,0.02,0.40,0.14,0.81,
53151.9,52.17958700488152,4.5937674722379604,2.0319723806043237,0.14,0.24,0.09,0.35,0.14,1.07,
53151.9,51.061401273368915,4.585632025704047,2.0216675843153182,0.23,0.48,0.14,0.40,0.16,1.00,
53151.9,50.06122751191785,4.5783337995862095,2.0120540142698218,0.22,0.53,0.16,0.47,0.15,0.64,
53152.0,51.96297624270573,4.579131672133834,2.0196830586032264,-0.02,-0.11,0.05,0.46,0.13,0.85,
53152.0,51.689312241506954,4.580050123542061,2.017939262975575,-0.01,-0.05,0.06,0.46,0.13,0.84,
53152.0,50.57985073129418,4.5835343956909425,2.0109284363498645,0.00,0.01,0.07,0.49,0.14,0.83,
53152.1,50.74221122497521,4.583213571460386,2.0157442605924016,0.06,0.16,-0.08,0.35,0.14,0.82,
53152.1,50.74454059305297,4.5827805679625975,2.015722371964962,0.05,0.13,-0.07,0.34,0.14,0.82,
53152.1,50.9255269977641,4.57717361387561,2.0077341371903086,0.04,0.10,-0.06,0.34,0.14,0.82,
53152.2,50.44924776446126,4.5913086364332685,2.0196148963547413,0.02,0.01,-0.04,0.45,0.14,0.88,
53152.2,50.820557848177934,4.580340791685401,2.0121782207963586,0.03,0.05,-0.06,0.44,0.14,0.87,
53152.2,50.644092449169236,4.612807870570359,2.026979963717779,0.04,0.10,-0.08,0.43,0.14,0.87,
53152.3,51.09453786854325,4.637663223350598,1.9990783221668218,0.10,0.67,-0.00,0.37,0.14,0.82,
53152.3,51.12327356498213,4.62692022929076,1.9878837157693448,0.10,0.66,-0.00,0.37,0.14,0.81,
53152.3,51.036008856492685,4.644444473391923,2.000463910435715,0.10,0.64,-0.01,0.38,0.13,0.82,
53152.4,50.059051129640885,4.650495678216061,2.0193778181223423,0.21,1.33,-0.20,0.27,0.14,0.89,
53152.4,50.56760524288252,4.639849086152077,2.0145429635595935,0.23,1.38,-0.21,0.25,0.14,0.88,
53152.4,50.92552699776409,4.664134105073867,2.0131591923790966,0.25,1.41,-0.22,0.23,0.15,0.88,
53152.5,52.27221632951869,4.696899325445073,1.9886070662233684,0.18,0.99,-0.24,0.09,0.18,0.84,
53152.5,51.91812111392322,4.7018564016894935,1.987631089794025,0.18,0.95,-0.26,0.07,0.14,0.81,
53152.5,50.081112208096975,4.729602359610671,1.982477777919715,0.18,0.91,-0.28,0.08,0.13,0.82,
53152.6,52.264259298300594,4.790790419370151,1.9771894706513555,0.12,0.46,-0.41,0.19,0.22,0.90,
53152.6,52.42960423272333,4.796133504451943,1.9762477744661997,0.12,0.51,-0.45,0.14,0.22,0.90,
53152.6,53.01944831851799,4.826836284028797,1.9651360168785088,0.12,0.55,-0.48,0.20,0.24,0.89,
53152.7,51.91489670605153,4.841237856996381,1.987447937386389,-0.01,0.67,-0.50,-0.04,0.16,0.87,
53152.7,51.738768829573054,4.849281431741308,1.993189037656396,-0.01,0.65,-0.45,-0.05,0.16,0.89,
53152.7,51.108736043850655,4.878658223216069,1.97712081794724,-0.00,0.64,-0.40,-0.06,0.17,0.91,
53152.8,50.70285396306602,4.876169333623471,1.9627880007615848,-0.02,0.36,-0.23,-0.03,0.22,0.89,
53152.8,51.55426461506361,4.882668643453874,1.9578550362481326,-0.03,0.34,-0.25,-0.03,0.22,0.88,
53152.8,52.30549301937609,4.888279001991608,1.9536558965356614,-0.04,0.30,-0.27,-0.03,0.22,0.88,
53152.9,51.86599753210189,4.930061166060453,1.9654107353266363,-0.07,0.02,-0.26,-0.05,0.21,0.92,
53152.9,51.81348280129411,4.913278586113482,1.9714853855403185,-0.07,0.04,-0.24,-0.01,0.22,0.91,
53152.9,52.05928447452961,4.923614233926798,1.9853811851037844,-0.06,0.06,-0.24,0.03,0.23,0.92,
53153.0,52.403405423693606,4.974605597092124,1.9498205473300732,-0.08,-0.46,-0.08,0.11,-0.13,0.94,
53153.0,52.89281047552682,4.950015197664684,1.9491879949507367,-0.04,-0.59,-0.13,-0.02,0.03,0.94,
53153.0,52.439981884054845,4.949934134453678,1.9550903903710941,-0.01,-0.66,-0.18,-0.17,0.08,0.94,
53153.1,52.2850925216739,4.956767313402073,1.954637976260648,-0.03,0.37,0.14,-0.05,0.23,0.94,
53153.1,52.330278997918604,4.960467788587538,1.9555259393607243,-0.03,0.34,0.12,-0.05,0.24,0.95,
53153.1,51.97171346030454,4.963050855069506,1.9947613136837743,-0.01,0.33,0.09,-0.05,0.24,0.93,
53153.2,51.12394057582025,4.950572326076307,1.9511561893213887,-0.11,0.73,0.07,-0.21,0.17,1.00,
53153.2,51.619986439362805,4.966390940477844,1.941490760278592,-0.09,0.69,0.09,-0.15,0.20,0.94,
53153.2,51.82690517482208,4.959864326390762,1.9774601590199443,-0.05,0.67,0.08,-0.16,0.20,0.84,
53153.3,51.88034020705724,4.968859659914223,1.942849439985704,0.01,0.55,0.06,-0.08,0.28,0.91,
53153.3,51.75794528379193,4.990004176799905,1.9456403237348483,0.03,0.58,0.03,-0.08,0.28,0.90,
53153.3,51.65242104683961,5.011285995026717,1.9481097050508875,0.06,0.60,-0.01,-0.09,0.27,0.87,
53153.4,52.93860122821531,5.008217990060051,1.94417370727749,-0.04,0.21,0.13,-0.24,0.18,0.90,
53153.4,52.16651991459656,5.000473671690639,1.944207184799963,-0.04,0.16,0.15,-0.25,0.19,0.89,
53153.4,52.12996930749144,5.0145367572112285,1.9430399737637567,-0.05,0.12,0.17,-0.26,0.19,0.90,
53153.5,52.52231144951639,4.98671574327614,1.934007336225784,0.11,0.81,0.47,-0.22,0.17,0.83,
53153.5,52.92188677664469,5.022989949032181,1.9250883075525842,0.10,0.82,0.43,-0.24,0.17,0.84,
53153.5,52.389309023883875,5.008015989989659,1.924167853068281,0.10,0.80,0.39,-0.26,0.17,0.86,
53153.6,53.209257653156556,4.98846355172333,1.9196894252463832,0.03,-0.69,0.12,-0.25,0.17,0.84,
53153.6,52.576965488700466,4.9917167023785405,1.918195253821578,0.02,-0.74,0.10,-0.27,0.17,0.86,
53153.6,52.46357212390327,4.99208069818213,1.917761574376139,0.01,-0.78,0.08,-0.27,0.17,0.86,
53153.7,52.35214417767433,4.964016679649849,1.9370836523463808,-0.09,-0.76,0.04,-0.14,0.29,0.90,
53153.7,52.12259874564966,4.962836688571026,1.9307666330573596,-0.08,-0.74,0.07,-0.12,0.29,0.89,
53153.7,51.57686690755846,4.98333583072311,1.9347519705714022,-0.09,-0.70,0.11,-0.11,0.27,0.89,
53153.8,52.178227260036344,4.958607476242665,1.9268870170430892,0.03,-0.05,-0.09,0.07,0.28,0.91,
53153.8,52.13702427258387,4.958215100935796,1.938461331441,0.06,-0.05,-0.12,0.02,0.25,0.94,
53153.8,52.10322254908999,4.957768786748323,1.9517027004912313,0.06,-0.04,-0.12,-0.03,0.22,0.95,
53153.9,52.41041594950378,4.9307661586037455,1.9681135952352904,-0.10,0.76,-0.40,-0.23,0.14,0.88,
53153.9,52.684356311907244,4.96361325916362,1.930201322649663,-0.09,0.75,-0.36,-0.23,0.16,0.85,
53153.9,52.339123034303896,4.954032663341996,1.9445567820044813,-0.08,0.72,-0.30,-0.23,0.20,0.83,
53154.0,53.04886332429753,4.986489437174605,1.9441692645529625,-0.11,0.65,-0.20,-0.21,0.13,0.86,
53154.0,53.02838768056219,4.9899375755236814,1.9439154770506006,-0.10,0.62,-0.22,-0.22,0.14,0.86,
53154.0,51.42393800556312,5.027142025546258,1.9429729223865901,-0.09,0.59,-0.25,-0.24,0.14,0.86,
53154.1,52.308116005071334,5.0241587845965725,1.9559037797761751,0.03,0.31,0.06,-0.23,0.20,0.88,
53154.1,52.66963736347537,5.027295633372673,1.9473997618692533,0.06,0.32,0.06,-0.24,0.19,0.89,
53154.1,52.350304679151584,5.019860304660378,1.921390075899007,0.07,0.34,0.05,-0.25,0.17,0.91,
53154.2,51.89901925855632,5.048243154445537,1.9135025564958246,0.03,0.35,0.23,-0.32,0.19,0.87,
53154.2,51.56049068812282,5.044952036795306,1.9141977965820922,0.04,0.34,0.24,-0.27,0.25,0.87,
53154.2,52.56333608134096,5.052940520855092,1.8971229184379763,0.05,0.36,0.24,-0.26,0.26,0.84,
53154.3,50.82012495065316,5.040580034582968,1.898344938334661,0.16,-0.39,0.50,-0.46,0.16,0.81,
53154.3,51.557158571822015,5.034850266715674,1.8906296361197972,0.16,-0.46,0.53,-0.46,0.15,0.83,
53154.3,52.563870671783675,5.027380746915851,1.8804954381095746,0.17,-0.54,0.55,-0.46,0.15,0.84,
53154.4,53.489641053198326,4.974457534577813,1.9052867354215874,-0.11,-1.25,0.18,-0.16,0.27,0.80,
53154.4,53.16514365634687,4.938574138743281,1.9133934216949575,-0.14,-1.31,0.12,-0.17,0.27,0.84,
53154.4,53.278031119777694,4.9376738817889745,1.9232166781587754,-0.20,-1.43,0.07,-0.19,0.24,0.95,
53154.5,51.774199172947135,4.9137604179608045,1.9628029281036448,-0.17,-0.40,-0.15,-0.04,0.18,0.92,
53154.5,51.650831551873395,4.913404136141519,1.9654678035174242,-0.16,-0.36,-0.14,-0.04,0.18,0.91,
53154.5,50.43704491740173,4.921997544837842,1.9649675711610595,-0.16,-0.33,-0.12,-0.00,0.23,0.89,
53154.6,51.92424289289156,4.907708418649991,1.9530834575709453,-0.01,0.13,0.15,-0.09,0.24,0.89,
53154.6,51.2342082987529,4.914306768046981,1.9667408572827398,-0.01,0.11,0.12,-0.10,0.24,0.89,
53154.6,51.05850467845685,4.91620593475128,1.970517397642856,-0.01,0.09,0.11,-0.10,0.23,0.89,
53154.7,52.606275291071505,4.909100077644675,1.9581198861840123,-0.05,-0.16,0.05,-0.13,0.23,0.91,
53154.7,52.61828864567908,4.887417626314766,1.9563853446826134,-0.05,-0.18,0.06,-0.12,0.24,0.91,
53154.7,52.65299991453479,4.862453610998183,1.9542739034415495,-0.05,-0.20,0.06,-0.12,0.24,0.92,
53154.8,51.7240533987815,4.880972771902785,1.9598582582966833,0.01,0.06,0.08,-0.12,0.26,0.93,
53154.8,52.735636907123826,4.909100077644675,1.9640895835181476,0.01,0.07,0.06,-0.13,0.26,0.92,
53154.8,52.451946579702835,4.904679236129844,1.9663347024716795,0.01,0.08,0.04,-0.14,0.25,0.92,
53154.9,52.131480892067515,4.916663228152816,1.932752841677726,0.20,0.10,0.10,-0.15,0.26,0.91,
53154.9,51.406435394802465,4.928592116416476,1.915269567122931,0.20,0.08,0.10,-0.15,0.27,0.91,
53154.9,51.02790609068728,4.918056937326348,1.9233560917111523,0.20,0.06,0.10,-0.16,0.26,0.91,
53155.0,51.45869994471294,4.876486454388623,1.912635359412787,0.29,0.36,0.09,-0.08,0.26,0.90,
53155.0,51.73481129761662,4.880199286903709,1.909507147127862,0.30,0.41,0.08,-0.07,0.25,0.91,
53155.0,50.91412966947389,4.869710501345754,1.9292073909868115,0.31,0.46,0.07,-0.08,0.26,0.90,
53155.1,51.63316279291828,4.9007346511536305,1.892999318049726,0.27,0.57,-0.09,-0.22,0.32,0.91,
53155.1,51.20112010493521,4.880199286903709,1.8785546633759107,0.27,0.55,-0.09,-0.21,0.32,0.92,
53155.1,51.0553836534405,4.9063445538036685,1.8534581225380102,0.26,0.53,-0.08,-0.22,0.32,0.92,
53155.2,50.57553064476932,4.92974981002807,1.8272791329176032,0.11,-0.02,-0.30,-0.25,0.34,0.92,
53155.2,50.197639386728135,4.936450820629296,1.8337899305945935,0.10,-0.03,-0.31,-0.25,0.34,0.91,
53155.2,49.6867930138382,4.945561158576771,1.842404027883956,0.09,-0.03,-0.31,-0.25,0.35,0.93,
53155.3,49.896253366360085,4.969807819704154,1.835624151630856,0.11,0.50,-0.71,-0.28,0.32,0.90,
53155.3,49.70464968189596,4.938638869163764,1.8494115865564542,0.11,0.54,-0.72,-0.28,0.33,0.92,
53155.3,49.23676065705379,4.940341266913293,1.841997887030108,0.11,0.58,-0.73,-0.28,0.33,0.91,
53155.4,49.28069500321602,5.039088356142479,1.8059076629823372,0.20,0.71,-1.08,-0.41,0.26,0.86,
53155.4,50.231470215393855,5.071374560628552,1.7913676556894045,0.20,0.68,-1.07,-0.41,0.25,0.86,
53155.4,50.045205564569315,5.070178038252673,1.7864709946809583,0.21,0.66,-1.06,-0.41,0.25,0.86,
53155.5,50.15686892141495,5.108922176574419,1.7847589575542775,0.25,0.46,-1.08,-0.40,0.24,0.78,
53155.5,48.819243132191225,5.130528650295987,1.7572525579030445,0.24,0.43,-1.09,-0.40,0.24,0.78,
53155.5,48.486844607584025,5.136189025236073,1.7499457394845332,0.24,0.41,-1.09,-0.40,0.24,0.78,
53155.6,48.78871385884239,5.191797917402564,1.721192386977953,0.15,0.31,-1.21,-0.43,0.22,0.74,
53155.6,49.68895350075306,5.219704760140507,1.714989385676903,0.14,0.30,-1.23,-0.44,0.21,0.74,
53155.6,49.39978340033486,5.2595944405733945,1.6933707754139737,0.14,0.30,-1.23,-0.44,0.20,0.75,
53155.7,48.17644030021313,5.300911935411657,1.6632969824713888,0.14,0.53,-1.08,-0.54,0.16,0.72,
53155.7,48.03059441647584,5.3184891553998614,1.6650424704257232,0.14,0.49,-1.06,-0.55,0.15,0.72,
53155.7,47.81613639766392,5.345804278627066,1.6675673962951232,0.14,0.47,-1.03,-0.55,0.15,0.74,
53155.8,47.43305387596291,5.352808499878053,1.6188826025220657,0.15,0.46,-0.60,-0.55,0.11,0.72,
53155.8,48.33741614939714,5.393308874089464,1.621296283205096,0.15,0.46,-0.56,-0.55,0.11,0.73,
53155.8,47.6016480807125,5.398429247899349,1.6187121611839297,0.15,0.46,-0.52,-0.55,0.12,0.73,
53155.9,47.71564732873274,5.421083459132843,1.552143082763975,0.17,0.76,-0.23,-0.58,0.12,0.63,
53155.9,47.68258067680481,5.422653625414958,1.5445782991851675,0.16,0.76,-0.23,-0.59,0.12,0.63,
53155.9,48.128464550617025,5.428384797489203,1.5693418855337165,0.15,0.76,-0.23,-0.60,0.13,0.64,
53156.0,47.991211695476075,5.4080348426863685,1.5378676819142356,-0.07,0.19,-0.16,-0.64,0.11,0.63,
53156.0,48.2850432328687,5.435295176883043,1.5248031427254953,-0.08,0.18,-0.15,-0.63,0.11,0.63,
53156.0,48.39107045726515,5.443773798012252,1.5207662319958164,-0.09,0.16,-0.15,-0.63,0.11,0.63,
53156.1,47.95875415396026,5.441977586371543,1.5292904218677104,-0.20,-0.07,-0.03,-0.64,0.07,0.65,
53156.1,47.41866404697627,5.452960733439686,1.5127697267284552,-0.20,-0.08,-0.02,-0.64,0.07,0.64,
53156.1,47.8691769304633,5.467314188452684,1.5204294850862108,-0.19,-0.10,-0.01,-0.64,0.07,0.64,
53156.2,47.1424150845075,5.437286890921579,1.5478850166527556,-0.18,-0.02,0.30,-0.62,0.08,0.69,
53156.2,46.691199384894794,5.438533268847685,1.5579455857049826,-0.18,-0.02,0.31,-0.62,0.09,0.68,
53156.2,45.909203870248064,5.441075420171275,1.576459709471041,-0.18,-0.03,0.32,-0.61,0.08,0.68,
53156.3,46.69599875792357,5.435349439480927,1.5538775819118886,-0.30,-0.07,0.46,-0.66,0.10,0.67,
53156.3,48.09761324639717,5.392786927091546,1.5204607268894774,-0.30,-0.04,0.45,-0.67,0.10,0.67,
53156.3,47.56640095697802,5.394817782447684,1.5350492011083414,-0.31,-0.02,0.43,-0.67,0.11,0.67,
53156.4,46.56303791635593,5.361130816145586,1.5570510863253697,-0.18,0.07,0.12,-0.73,0.12,0.64,
53156.4,46.57201520226498,5.352883871049203,1.5619926429853843,-0.18,0.05,0.11,-0.72,0.12,0.65,
53156.4,46.1779449521089,5.3780297306413605,1.5474064058419754,-0.17,0.02,0.10,-0.71,0.12,0.65,
53156.5,46.67188447020326,5.374146246907809,1.5729389460109153,-0.05,-0.24,-0.11,-0.70,0.10,0.66,
53156.5,46.834086945300854,5.378358217763799,1.5520054877523715,-0.06,-0.25,-0.12,-0.69,0.09,0.66,
53156.5,46.90432602649781,5.380035244497472,1.5441431773699328,-0.06,-0.26,-0.13,-0.68,0.10,0.66,
53156.6,45.284126357919284,5.362604065770023,1.5557794629899786,-0.00,-0.09,-0.26,-0.66,0.04,0.71,
53156.6,45.12419085147123,5.391491114715096,1.5581641853920045,-0.00,-0.12,-0.26,-0.66,0.04,0.71,
53156.6,45.3308923362424,5.384889860186929,1.546086599640346,0.00,-0.14,-0.25,-0.67,0.05,0.71,
53156.7,45.13324052181496,5.382527401208905,1.5588314672328634,-0.05,-0.13,0.07,-0.62,0.05,0.77,
53156.7,44.563297678695186,5.406581358057829,1.5692255267771062,-0.06,-0.13,0.07,-0.62,0.05,0.77,
53156.7,44.63375180286775,5.408475505907885,1.5692280062780632,-0.06,-0.15,0.07,-0.62,0.05,0.77,
53156.8,44.49224314417065,5.3351206288553605,1.5654021019379314,-0.16,-0.70,0.43,-0.58,0.09,0.78,
53156.8,44.79136635558241,5.330690973308859,1.6029509201330576,-0.16,-0.63,0.45,-0.56,0.08,0.79,
53156.8,45.0505061014857,5.327553458184092,1.5961039603434577,-0.16,-0.55,0.47,-0.54,0.08,0.79,
53156.9,46.59058917850256,5.313250314353672,1.5740158666586563,-0.21,0.33,0.16,-0.62,0.11,0.72,
53156.9,46.881650994818855,5.312105638095011,1.5763422349976834,-0.20,0.28,0.15,-0.63,0.11,0.71,
53156.9,46.51629069476628,5.326390734395069,1.5692914770879551,-0.18,0.21,0.14,-0.64,0.11,0.69,
53157.0,46.6569276742479,5.2845765153959645,1.5873005201913943,0.02,-1.08,0.47,-0.52,0.08,0.78,
53157.0,45.696342304390186,5.245977267947787,1.5850211397335072,0.03,-1.04,0.49,-0.50,0.08,0.77,
53157.0,45.29298621199535,5.2284950908501004,1.5840437984255236,0.03,-0.98,0.50,-0.47,0.08,0.76,
53157.1,47.25916313266666,5.213526119717945,1.5904763205335837,0.02,-0.65,0.25,-0.52,0.12,0.80,
53157.1,47.55788157603322,5.224961733549535,1.5878290275738733,0.01,-0.66,0.28,-0.51,0.13,0.80,
53157.1,48.09866630167618,5.2447139457558265,1.5832710086974693,0.01,-0.68,0.31,-0.50,0.14,0.79,
53157.2,48.63663434079295,5.186062007721411,1.5940319330749266,0.06,-1.52,0.35,-0.43,0.19,0.83,
53157.2,47.262798266712906,5.197251555134162,1.6118549449257882,0.07,-1.56,0.36,-0.42,0.20,0.82,
53157.2,47.574805307010976,5.191467753638935,1.6136893172350844,0.08,-1.60,0.37,-0.42,0.19,0.83,
53157.3,48.62223462573476,5.120880696984071,1.6383064453135052,0.05,-0.96,0.20,-0.25,0.22,0.90,
53157.3,47.8934369198954,5.13129314839753,1.635777877383016,0.04,-0.95,0.18,-0.26,0.22,0.90,
53157.3,48.2449810861192,5.11987306036913,1.642783064281515,0.04,-0.95,0.17,-0.27,0.22,0.91,
53157.4,49.1006782030554,5.102506428038264,1.6650281087835737,0.01,-0.71,0.25,-0.14,0.16,0.90,
53157.4,49.404206298654366,5.097200141720858,1.6668873821733723,0.02,-0.73,0.24,-0.15,0.17,0.90,
53157.4,49.52331673060681,5.095381789986066,1.667669890127484,0.03,-0.73,0.23,-0.15,0.17,0.89,
53157.5,49.476210445020946,5.072564813110452,1.6868700320626424,0.04,-0.78,0.16,-0.11,0.16,0.87,
53157.5,50.04887411321058,5.077380263646636,1.6935849200402957,0.04,-0.77,0.16,-0.12,0.17,0.88,
53157.5,49.65981171933699,5.055958921297137,1.694551835548128,0.05,-0.77,0.16,-0.12,0.18,0.89,
53157.6,48.80310850755308,5.02280599192809,1.6726049805108467,0.01,-1.03,0.14,-0.06,0.18,0.90,
53157.6,49.62940358295675,5.030870944229692,1.678602534304756,0.01,-1.09,0.14,-0.05,0.18,0.91,
53157.6,51.296911213054535,5.046682344447826,1.6905829603715157,0.02,-1.14,0.16,-0.04,0.18,0.90,
53157.7,50.37876636044197,5.0359792840220505,1.7162105741759983,-0.01,-1.00,0.29,0.12,0.24,0.96,
53157.7,49.72452614153301,4.996491821831104,1.7114317331348312,-0.02,-1.00,0.29,0.11,0.23,0.96,
53157.7,49.811855014644856,4.999997696526754,1.7164570326616888,-0.02,-1.01,0.28,0.11,0.23,0.96,
53157.8,49.80066063818832,4.9720463044866365,1.7417052146188328,-0.19,0.85,0.16,0.23,0.23,0.97,
53157.8,49.234960140128074,4.962042855778451,1.7715947457280454,-0.21,0.92,0.13,0.22,0.24,0.96,
53157.8,49.43953175344604,4.964118891207254,1.7662143271830957,-0.23,0.97,0.09,0.21,0.24,0.96,
53157.9,49.5750118507298,4.978117969864326,1.7667015445892904,-0.46,0.63,0.09,0.07,0.19,1.02,
53157.9,49.12111358672562,4.980366685041065,1.8054298706550702,-0.49,0.63,0.09,0.07,0.19,1.03,
53157.9,48.95859475107512,4.98130413908541,1.8217967336024068,-0.50,0.65,0.09,0.07,0.19,1.02,
53158.0,47.68985426691929,4.977707394153441,1.8353527950670898,-0.64,1.50,0.08,-0.14,0.07,0.91,
53158.0,47.502644136932,4.993348689944214,1.8664363881775963,-0.63,1.50,0.08,-0.17,0.06,0.91,
53158.0,46.61814882639593,4.999759462918847,1.9031489191650088,-0.62,1.49,0.07,-0.18,0.05,0.91,
53158.1,46.62413430831719,5.056109224095464,1.940566139038608,-0.38,0.69,0.16,-0.25,-0.00,0.85,
53158.1,46.640217623849054,5.049596958961418,1.9473399059403909,-0.37,0.67,0.17,-0.24,-0.01,0.86,
53158.1,46.69069928797383,5.033846322650752,1.9633155895567238,-0.36,0.67,0.17,-0.24,-0.01,0.85,
53158.2,47.12497745357551,5.056109224095464,1.9670823655692071,-0.36,0.85,0.15,-0.27,-0.03,0.84,
53158.2,47.07479155556613,5.065265278080892,1.9746790793398914,-0.37,0.87,0.15,-0.28,-0.03,0.83,
53158.2,46.940873447348636,5.097159167369872,2.000133639992262,-0.37,0.90,0.14,-0.30,-0.04,0.82,
53158.3,45.73300886668184,5.07416022509684,1.9705762072793822,-0.33,0.48,0.11,-0.40,-0.07,0.84,
53158.3,45.10556284983039,5.07533458226742,1.9577154122323384,-0.32,0.47,0.11,-0.40,-0.07,0.84,
53158.3,46.12595256468965,5.090464637928427,1.9960655126156215,-0.32,0.44,0.11,-0.40,-0.07,0.84,
53158.4,46.67855717564544,5.092719502403466,2.0105065301195255,-0.22,0.60,0.11,-0.41,-0.07,0.85,
53158.4,47.16751106429085,5.127016893130488,2.026779751941679,-0.21,0.60,0.11,-0.42,-0.06,0.85,
53158.4,47.4212810877142,5.143660523796443,2.0345042547199994,-0.21,0.61,0.10,-0.42,-0.06,0.86,
53158.5,47.30031289537099,5.124933993371387,2.02281636165878,-0.15,0.66,0.09,-0.48,-0.06,0.81,
53158.5,47.57432395736171,5.143660523796443,2.040896319141895,-0.15,0.66,0.09,-0.48,-0.07,0.80,
53158.5,47.44287196197127,5.174884998604779,2.0208896312448363,-0.15,0.67,0.09,-0.48,-0.07,0.81,
53158.6,46.696162583235896,5.172437959703905,2.010565833427314,-0.21,0.46,0.03,-0.54,-0.07,0.72,
53158.6,48.090317112699516,5.162047864609725,2.027559173477292,-0.21,0.43,0.02,-0.55,-0.06,0.72,
53158.6,47.93631295792366,5.17003003361949,2.019854925896862,-0.21,0.40,0.02,-0.55,-0.06,0.71,
53158.7,47.034955086616165,5.232298744730955,2.0267411635903203,-0.27,0.13,-0.04,-0.55,-0.09,0.69,
53158.7,47.531678909964874,5.176141323360815,2.0256000269316754,-0.27,0.14,-0.04,-0.54,-0.10,0.69,
53158.7,47.45561505238342,5.182129590988041,2.0284969711825145,-0.28,0.16,-0.04,-0.54,-0.10,0.68,
53158.8,46.289714840340075,5.238770125893803,2.021889895285873,-0.25,0.29,-0.11,-0.58,-0.14,0.61,
53158.8,46.21258378407336,5.24041157055699,2.0193337743992386,-0.23,0.25,-0.12,-0.59,-0.14,0.60,
53158.8,46.223298238009804,5.239142471537174,2.0310197719094716,-0.21,0.21,-0.12,-0.59,-0.14,0.60,
53158.9,45.503189998064975,5.236049805041246,2.022693085630348,0.29,-0.68,-0.10,-0.56,-0.12,0.61,
53158.9,45.564606878585046,5.245063915023666,2.0455878853689016,0.31,-0.71,-0.11,-0.56,-0.12,0.60,
53158.9,45.61002082876087,5.250254425251904,2.0586789885221397,0.34,-0.74,-0.13,-0.55,-0.12,0.61,
53159.0,47.008898093871544,5.196376396429013,2.0470172329045546,0.56,-1.04,-0.25,-0.50,-0.12,0.74,
53159.0,48.50972067534506,5.1761394912167855,2.0311230666852045,0.58,-1.04,-0.26,-0.50,-0.12,0.74,
53159.0,48.30875490012137,5.196401642197117,2.0419953636502677,0.59,-1.05,-0.26,-0.49,-0.12,0.73,
53159.1,47.15871711571467,5.181591494325649,2.049197320596585,0.72,-1.42,-0.39,-0.34,-0.07,0.82,
53159.1,47.018468711773245,5.166840954661195,2.0452378876493666,0.73,-1.41,-0.39,-0.33,-0.06,0.83,
53159.1,46.62580079741258,5.119481052299914,2.031049195948116,0.73,-1.42,-0.40,-0.32,-0.06,0.83,
53159.2,44.95214121707664,5.113817212721145,2.0162892234526066,0.60,-1.30,-0.41,-0.17,0.02,0.95,
53159.2,46.675806366896325,5.0958194553169225,2.0264581101506676,0.58,-1.27,-0.40,-0.16,0.02,0.96,
53159.2,46.94498588773885,5.089426503403259,2.0198632631591753,0.57,-1.24,-0.40,-0.15,0.02,0.95,
53159.3,46.50120536072157,5.0534398463203285,2.0004416004702907,0.50,-0.88,-0.33,-0.05,0.07,0.98,
53159.3,46.406997317214994,5.054312302351065,2.0013719463186694,0.49,-0.81,-0.33,-0.05,0.07,0.98,
53159.3,44.84767775481803,5.057152982797325,1.9675422863746284,0.48,-0.74,-0.33,-0.04,0.07,0.97,
53159.4,47.827796311350156,5.06785057850931,1.9422483865658347,0.32,-0.69,-0.19,0.02,0.11,0.98,
53159.4,47.20427205243187,5.071426523697417,1.9496780960669187,0.31,-0.68,-0.18,0.02,0.12,0.99,
53159.4,46.79544956510195,5.073722087729058,1.954540968890537,0.31,-0.67,-0.18,0.02,0.12,0.99,
53159.5,47.71606542874213,5.045795665289033,1.9243295048070734,0.11,-0.67,-0.05,0.05,0.11,0.99,
53159.5,47.684015141344794,5.049782061454328,1.9277092031907745,0.11,-0.67,-0.05,0.05,0.12,0.98,
53159.5,47.59598407428929,5.060679455039296,1.9364857269843136,0.11,-0.66,-0.05,0.05,0.12,0.98,
53159.6,48.81076110859162,5.057181957878851,1.8870381935332365,0.12,-0.26,0.01,0.12,0.13,0.93,
53159.6,48.39571158687513,5.0553836737703195,1.886800771434619,0.13,-0.25,-0.00,0.11,0.14,0.93,
53159.6,46.74361025851555,5.0483734488641465,1.8864277443906774,0.13,-0.24,-0.01,0.11,0.14,0.93,
53159.7,47.41966891491336,5.045865927316974,1.8704989929994646,0.16,-0.21,-0.02,0.10,0.16,0.92,
53159.7,46.856538497844674,5.008475371416268,1.8452697215978326,0.16,-0.20,-0.03,0.10,0.15,0.92,
53159.7,47.10928252478485,5.011050078514489,1.8459643671545285,0.15,-0.19,-0.04,0.11,0.15,0.93,
53159.8,48.106159688755035,5.012723065101029,1.862617674610583,0.04,-0.33,-0.05,0.13,0.14,0.91,
53159.8,48.556476396048346,5.0264639516115714,1.8273258384566409,0.04,-0.32,-0.04,0.13,0.14,0.91,
53159.8,48.83360523246262,5.033939654712037,1.8083120184259134,0.04,-0.31,-0.04,0.13,0.14,0.91,
53159.9,49.63805294328132,5.058747508082714,1.8430957956429248,-0.02,-0.31,0.01,0.19,0.14,0.92,
53159.9,49.235643592828154,5.029354246304427,1.8308483138948295,-0.02,-0.28,0.00,0.19,0.13,0.91,
53159.9,49.41343744367518,5.040892610089753,1.8298910666883297,-0.02,-0.24,-0.01,0.19,0.14,0.91,
53160.0,48.90389043828722,5.047622316040554,1.8398585543708639,-0.05,0.09,-0.06,0.16,0.14,0.90,
53160.0,48.769417671323495,5.053309739083719,1.8397680851680036,-0.05,0.10,-0.07,0.15,0.14,0.89,
53160.0,48.36094912219982,5.071109448591999,1.8393079583978749,-0.05,0.12,-0.08,0.15,0.14,0.88,
53160.1,46.87644397775923,5.043327745028872,1.8480323230022127,-0.04,0.55,-0.12,0.19,0.21,0.92,
53160.1,47.06732837117484,5.049366075166374,1.8475409794490107,-0.06,0.59,-0.13,0.19,0.23,0.93,
53160.1,48.005146599088725,5.078428657926986,1.8450247772436403,-0.08,0.62,-0.15,0.18,0.23,0.92,
53160.2,46.8359530702643,5.086341297648507,1.8248222066038098,-0.02,0.46,-0.25,0.04,0.18,0.93,
53160.2,46.49777951687586,5.101278394650952,1.8280450245591209,-0.00,0.45,-0.23,0.06,0.18,0.93,
53160.2,47.77952071756266,5.083602760150865,1.7970865809259613,0.02,0.45,-0.21,0.07,0.18,0.93,
53160.3,48.23113309886053,5.103639471938637,1.840048628458771,0.12,0.62,-0.30,0.06,0.18,0.88,
53160.3,47.56933991553804,5.122150951048918,1.841707353775777,0.11,0.67,-0.32,0.05,0.19,0.88,
53160.3,47.15015694565608,5.134078377022263,1.8426358654903585,0.11,0.72,-0.33,0.04,0.19,0.87,
53160.4,45.4813115466122,5.173194246009519,1.8218798955559794,0.14,0.03,-0.38,0.01,0.18,0.90,
53160.4,46.25972438309593,5.1745380890086246,1.8255996757640878,0.13,0.01,-0.38,0.00,0.18,0.91,
53160.4,46.111560372644085,5.194883365023477,1.8264366831446062,0.13,0.01,-0.38,0.00,0.17,0.92,
53160.5,45.876876528377565,5.216124490531432,1.842904717727354,0.13,0.01,-0.58,-0.04,0.16,0.89,
53160.5,45.48886676979325,5.210878866732239,1.8459707858023635,0.13,-0.08,-0.57,-0.03,0.16,0.89,
53160.5,44.05863933441431,5.190539066113038,1.8584601311061615,0.13,-0.16,-0.56,-0.01,0.16,0.88,
53160.6,44.43955332808826,5.250456116402487,1.8834753394837995,0.03,-0.56,-0.43,-0.01,0.14,0.85,
53160.6,44.99963222071931,5.217984685234355,1.89488712375027,0.01,-0.58,-0.41,0.00,0.15,0.87,
53160.6,44.97139201759269,5.224548308757177,1.896505971128676,0.00,-0.60,-0.39,0.01,0.15,0.87,
53160.7,43.83331381495129,5.256177992425826,1.9173899520290318,-0.03,-0.08,-0.20,0.06,0.14,0.89,
53160.7,43.87422250023355,5.256177992425826,1.9199624046888832,-0.03,-0.06,-0.20,0.05,0.14,0.89,
53160.7,44.14348196506479,5.233881590129028,1.9361119783518428,-0.04,-0.03,-0.20,0.04,0.14,0.89,
53160.8,44.427645672486406,5.280215402384869,1.9517872747346292,-0.20,0.02,0.04,0.04,0.12,0.90,
53160.8,44.62303665148753,5.270193342567163,1.9570397533308015,-0.21,0.02,0.05,0.03,0.12,0.91,
53160.8,44.76547441946751,5.263205355514887,1.9608128766614605,-0.22,0.02,0.05,0.03,0.12,0.90,
53160.9,44.702259450725755,5.266637118837156,1.9847331864302364,-0.26,-0.10,0.18,0.04,0.09,0.91,
53160.9,43.891821561653146,5.298593024720516,1.9898645915133755,-0.25,-0.09,0.19,0.03,0.09,0.90,
53160.9,44.02894956730174,5.296118694705781,1.9884776500682209,-0.24,-0.07,0.19,0.03,0.09,0.90,
53161.0,44.04638123614697,5.265052060406808,2.0218389688411262,-0.36,-0.33,0.33,0.06,0.02,0.88,
53161.0,44.110397867169596,5.269121232923873,2.019625865739867,-0.37,-0.35,0.34,0.07,0.03,0.88,
53161.0,44.39676564796134,5.286865838770321,2.0095435951180876,-0.38,-0.37,0.34,0.08,0.03,0.89,
53161.1,45.663287222888364,5.269385775098211,2.058060059869218,-0.39,-0.73,0.56,0.15,0.01,0.90,
53161.1,44.6582108911676,5.225098708038094,2.074109077796651,-0.39,-0.73,0.58,0.17,0.01,0.90,
53161.1,44.639378355886635,5.216778945814925,2.0748529847061956,-0.39,-0.73,0.59,0.17,0.02,0.89,
53161.2,45.477248157732674,5.205807421678243,2.169773987635015,-0.16,0.10,0.65,0.16,0.01,0.89,
53161.2,45.36436266498186,5.194709117736096,2.1830096210860708,-0.14,0.10,0.64,0.16,0.01,0.88,
53161.2,45.38105992592064,5.162236430428878,2.112286154961593,-0.12,0.09,0.64,0.15,0.02,0.89,
53161.3,45.72497129578104,5.134629879774499,2.1334191489274437,0.06,0.30,0.86,0.14,-0.03,0.78,
53161.3,46.269368917243725,5.11193070499308,2.138015167277504,0.06,0.30,0.86,0.14,-0.03,0.77,
53161.3,46.71151678119647,5.094265219653893,2.1413804829906873,0.06,0.29,0.86,0.14,-0.04,0.77,
53161.4,46.98843049091978,5.062772288386714,2.1543424620936453,-0.03,-0.68,0.73,0.19,-0.05,0.67,
53161.4,46.872975156266754,5.067381635625505,2.169337282946274,-0.03,-0.72,0.75,0.21,-0.05,0.67,
53161.4,47.20360791295513,5.034544229214925,2.1666142359298632,-0.04,-0.77,0.77,0.22,-0.06,0.65,
53161.5,47.65680329187009,4.886046627733879,2.2097391798440142,0.51,-1.05,0.89,0.41,0.06,0.81,
53161.5,47.44334410641813,4.8830617481708805,2.2094056373506765,0.55,-1.01,0.87,0.43,0.06,0.84,
53161.5,46.36320092487144,4.867567986357514,2.207898163357326,0.59,-0.96,0.85,0.44,0.06,0.86,
53161.6,47.98652831785188,4.8191156890868205,2.170411778390983,1.00,0.42,0.43,0.29,0.21,1.02,
53161.6,48.328321924105744,4.765761868859274,2.169337353205518,0.99,0.50,0.42,0.28,0.22,1.05,
53161.6,48.335569718376135,4.766282794666041,2.1632376485350937,0.98,0.59,0.41,0.28,0.23,1.07,
53161.7,48.91176852251409,4.795432641778758,2.0862485946931457,0.64,0.66,0.31,0.10,0.27,1.00,
53161.7,48.74894357829716,4.794660226992379,2.0632969076670977,0.62,0.56,0.32,0.10,0.26,0.99,
53161.7,50.83938335581973,4.824301647320975,2.060655219024527,0.61,0.47,0.33,0.09,0.26,0.98,
53161.8,50.12547555884134,4.800541483175408,2.052891421440175,0.36,-0.27,0.54,0.20,0.21,1.02,
53161.8,50.25678959105923,4.790916421997672,2.032320092728975,0.37,-0.17,0.53,0.21,0.20,1.02,
53161.8,50.486843830843696,4.768378253028586,2.0320447829567705,0.37,-0.06,0.53,0.21,0.21,1.01,
53161.9,50.86887260398052,4.740822479120175,2.0082543643447615,0.55,0.60,0.25,0.11,0.30,0.88,
53161.9,51.156569470596835,4.7406081627624985,2.004117599247109,0.54,0.59,0.25,0.10,0.30,0.87,
53161.9,52.283392200583165,4.739805178081371,1.9885121715570044,0.53,0.59,0.25,0.08,0.30,0.86,
53162.0,51.72442169807218,4.765060235138385,1.9690665591389156,0.40,0.72,0.25,0.08,0.25,0.78,
53162.0,51.67264847092706,4.76507128006744,1.9671793354531613,0.40,0.75,0.22,0.07,0.23,0.77,
53162.0,51.45150143581818,4.76507128006744,1.9567804461807574,0.40,0.76,0.17,0.07,0.22,0.75,
53162.1,52.372126174139616,4.77376884287924,1.9187992213435574,-0.20,-0.88,-0.04,0.19,0.27,0.95,
53162.1,52.22299206288357,4.765265013916198,1.9538792715068454,-0.21,-0.91,-0.05,0.21,0.27,0.95,
53162.1,52.2998183553251,4.764255554211683,1.9586517354837862,-0.21,-0.93,-0.06,0.24,0.26,0.94,
53162.2,51.35369314859449,4.78362098713988,1.9752811532745573,-0.21,0.01,-0.36,0.21,0.19,0.92,
53162.2,51.69893712640522,4.778845312356014,1.9724241254552992,-0.20,0.04,-0.35,0.20,0.19,0.90,
53162.2,51.957072665807495,4.775524552058408,1.9703149881454638,-0.19,0.05,-0.34,0.18,0.19,0.90,
53162.3,51.011885869863704,4.759544045123578,1.9862788205662252,-0.08,-0.02,0.04,0.16,0.20,0.88,
53162.3,51.042102229434086,4.784137268416894,1.9778959308602095,-0.08,-0.03,0.04,0.15,0.19,0.88,
53162.3,51.61338101694172,4.76724168051852,1.9853730220300867,-0.08,-0.04,0.05,0.16,0.19,0.89,
53162.4,51.83015820928969,4.7797856909242515,1.9888048663899582,-0.04,-0.11,0.02,0.22,0.18,0.88,
53162.4,51.8591679455041,4.7762849331431765,1.9934140555304833,-0.03,-0.13,0.01,0.23,0.18,0.88,
53162.4,52.02899576197872,4.758392306144926,2.015449452549055,-0.02,-0.15,0.01,0.24,0.19,0.88,
53162.5,51.86188002762723,4.747601930050708,1.9731847557010929,0.02,-0.06,0.03,0.22,0.20,0.87,
53162.5,51.91378333352329,4.7463097725392265,1.9731779262940627,0.02,-0.07,0.03,0.22,0.20,0.86,
53162.5,52.11260404163277,4.740001610436784,1.9971213846881195,0.02,-0.08,0.03,0.21,0.20,0.87,
53162.6,51.92203963636251,4.729570149167889,2.003026876898856,0.01,-0.01,0.08,0.25,0.20,0.85,
53162.6,51.61758711912055,4.7183782135834065,2.008528478651719,0.01,-0.00,0.07,0.24,0.20,0.85,
53162.6,51.78824770157801,4.749998788370949,2.00081739223306,0.02,-0.00,0.06,0.24,0.19,0.85,
53162.7,52.359806149373775,4.728866420979456,1.984316142462384,0.12,-0.01,0.06,0.26,0.20,0.90,
53162.7,52.07270014124484,4.71745329665843,1.9981024015933635,0.12,0.01,0.05,0.25,0.20,0.89,
53162.7,51.843435457153106,4.70748705886324,2.0101106924255814,0.12,0.02,0.04,0.24,0.20,0.88,
53162.8,51.806395358102264,4.734377400442139,1.9909105013384232,0.06,-0.02,0.05,0.24,0.22,0.87,
53162.8,50.68619338636509,4.740403040096124,1.9665560732714849,0.07,-0.02,0.04,0.23,0.23,0.89,
53162.8,51.37468345401264,4.750278504606765,1.974047901394936,0.09,-0.02,0.04,0.22,0.22,0.89,
53162.9,51.17937475194475,4.751158972296384,1.979932019694573,0.06,-0.07,0.06,0.24,0.21,0.83,
53162.9,51.14974193483286,4.74582346995291,1.9780530663062492,0.07,-0.09,0.07,0.25,0.22,0.83,
53162.9,50.983166829846894,4.711114825202474,1.9641236277932919,0.08,-0.10,0.07,0.25,0.21,0.82,
53163.0,51.612623455894976,4.718250332561454,1.9590682692252683,0.09,-0.21,-0.03,0.22,0.23,0.84,
53163.0,51.75854905230633,4.750678818869501,1.9641827023737146,0.08,-0.22,-0.05,0.22,0.22,0.86,
53163.0,51.77065867844449,4.753587668239684,1.963458332375251,0.06,-0.22,-0.06,0.22,0.22,0.89,
53163.1,51.51051154861501,4.730123607356715,1.9746115020338406,0.01,-0.35,-0.05,0.25,0.23,0.83,
53163.1,51.826283872182074,4.725460131334872,1.9854624537665895,0.01,-0.37,-0.03,0.25,0.23,0.85,
53163.1,52.14546864301825,4.716312148363629,1.9505522179389196,0.02,-0.39,-0.01,0.26,0.23,0.85,
53163.2,51.78358813369348,4.72275345169814,1.9427493639959559,0.03,-0.09,0.06,0.30,0.22,0.82,
53163.2,51.435476084119216,4.704074892182323,1.9322634876238067,0.03,-0.07,0.05,0.29,0.22,0.83,
53163.2,51.57698226922549,4.7021873771921054,1.9436878881287767,0.03,-0.06,0.05,0.29,0.22,0.82,
53163.3,51.87610721709948,4.718682163509803,1.9762124874294995,-0.02,-0.09,0.06,0.30,0.23,0.83,
53163.3,50.883144556915894,4.703768504272553,1.9936363482808812,-0.03,-0.08,0.05,0.30,0.23,0.83,
53163.3,50.65194665558275,4.714962425271997,1.9719798754765812,-0.03,-0.07,0.05,0.29,0.23,0.83,
53163.4,52.1867655636944,4.731509493412508,1.9682495178422117,-0.02,-0.10,0.05,0.33,0.22,0.84,
53163.4,52.19898274870881,4.727145755735885,1.9689824591245262,-0.02,-0.09,0.05,0.33,0.23,0.84,
53163.4,52.33076150793145,4.682674179030856,1.9741481311348696,-0.02,-0.08,0.05,0.33,0.23,0.85,
53163.5,52.25639482398302,4.697119841102645,1.9540343178868433,-0.01,-0.09,0.06,0.31,0.22,0.83,
53163.5,52.17248796061005,4.693761451878242,1.9575785522211229,-0.00,-0.10,0.06,0.32,0.23,0.83,
53163.5,52.19855266192732,4.693769158570772,1.957788896269811,-0.00,-0.10,0.06,0.32,0.22,0.83,
53163.6,50.53917589355806,4.702374399359593,1.9508812380753944,0.01,-0.05,0.05,0.30,0.22,0.84,
53163.6,50.86547158928147,4.6892459480691695,1.9578549553211821,0.01,-0.06,0.06,0.30,0.22,0.84,
53163.6,52.36659526835786,4.6985268433274765,1.9657736787654299,0.01,-0.07,0.06,0.30,0.22,0.84,
53163.7,50.99478208601347,4.6892459480691695,1.9640291151187526,0.09,-0.15,0.09,0.34,0.24,0.85,
53163.7,51.46547969270275,4.675835282387385,1.9602380155823975,0.10,-0.14,0.09,0.33,0.24,0.86,
53163.7,51.984952630544925,4.661300653354186,1.956140398385428,0.10,-0.13,0.08,0.33,0.25,0.85,
53163.8,51.321646505154135,4.668164478776609,1.9473105564757776,0.14,-0.22,0.09,0.33,0.22,0.84,
53163.8,52.06320293643102,4.689736443413407,1.9623787214670532,0.14,-0.23,0.10,0.34,0.23,0.84,
53163.8,51.8589596887558,4.679814371646083,1.9483981650243358,0.15,-0.22,0.11,0.35,0.23,0.85,
53163.9,51.09896574295804,4.656647411148482,1.9251387916289266,0.08,-0.05,0.10,0.31,0.22,0.79,
53163.9,51.153100590286805,4.657954292223584,1.9253726022771724,0.08,-0.03,0.12,0.33,0.22,0.80,
53163.9,50.980559039696686,4.660569505491647,1.942788302917391,0.08,-0.02,0.14,0.34,0.23,0.79,
53164.0,49.43461236825874,4.663110284195568,1.9296177411289943,0.16,-0.04,0.14,0.34,0.27,0.80,
53164.0,50.80259934294701,4.664616590719659,1.919537255271674,0.17,-0.06,0.16,0.35,0.27,0.81,
53164.0,51.04379590116707,4.664667158865165,1.9176113446862775,0.17,-0.07,0.18,0.34,0.26,0.81,
53164.1,50.46006440741034,4.61514598496543,1.9100022614827106,0.23,0.03,0.33,0.37,0.32,0.85,
53164.1,51.033372414528905,4.604167863970641,1.9143533861126822,0.23,0.07,0.33,0.36,0.33,0.85,
53164.1,51.42748195274585,4.6106917668582845,1.9062540546575513,0.23,0.11,0.32,0.36,0.32,0.84,
53164.2,49.85757715733889,4.604870069203725,1.9017293179504697,0.20,0.04,0.27,0.34,0.34,0.85,
53164.2,49.90160919248997,4.617586520346979,1.8727491019707152,0.20,0.00,0.27,0.34,0.33,0.84,
53164.2,49.58113552552019,4.615448032578554,1.8669514381716585,0.20,-0.03,0.26,0.35,0.33,0.84,
53164.3,50.58908380273357,4.594881612900001,1.8685190922126746,0.04,-0.36,0.02,0.33,0.34,0.86,
53164.3,49.8720302373986,4.6246954278948085,1.8729338434902056,0.03,-0.41,0.01,0.33,0.34,0.85,
53164.3,49.81799474085644,4.611321902556442,1.8652912603704277,0.02,-0.46,0.00,0.35,0.33,0.86,
53164.4,49.00725864604141,4.599347917788243,1.8392769798061035,0.00,0.48,-0.16,0.42,0.25,0.83,
53164.4,48.9595220564907,4.598176052290746,1.8391215550807203,0.01,0.49,-0.16,0.40,0.25,0.82,
53164.4,48.59675503570172,4.590386798267499,1.8343479964502536,0.01,0.49,-0.16,0.39,0.25,0.82,
53164.5,49.13228266628776,4.622300021451375,1.8234120348774463,0.17,0.31,0.09,0.42,0.23,0.81,
53164.5,48.26541308224762,4.615495074779761,1.8327671414382964,0.17,0.33,0.09,0.42,0.24,0.80,
53164.5,48.789862676584775,4.61400251321296,1.8152831903125868,0.16,0.34,0.09,0.41,0.25,0.80,
53164.6,47.32858227329444,4.633018047951021,1.8051418074103889,0.11,0.37,0.08,0.37,0.22,0.72,
53164.6,48.02070490944505,4.622972873637099,1.8158451458431109,0.10,0.36,0.07,0.37,0.22,0.72,
53164.6,48.73825704721087,4.6129735565536,1.8265596924434266,0.09,0.35,0.06,0.36,0.22,0.71,
53164.7,47.82640693173594,4.644819586860757,1.8063114233456832,-0.11,0.40,-0.10,0.35,0.20,0.74,
53164.7,48.04541809579765,4.647417211957319,1.8107851400148185,-0.12,0.41,-0.10,0.35,0.20,0.74,
53164.7,49.1961929421373,4.660569505491647,1.834639385397992,-0.13,0.43,-0.10,0.35,0.20,0.75,
53164.8,49.204365659969646,4.646628233533946,1.8117169015463852,-0.18,0.29,-0.16,0.26,0.24,0.81,
53164.8,48.08840296786742,4.6453239328211975,1.797741696372768,-0.17,0.25,-0.16,0.26,0.25,0.81,
53164.8,48.03681713019713,4.650277254680396,1.8054744846587873,-0.17,0.23,-0.15,0.26,0.25,0.81,
53164.9,48.56547230286142,4.6892459480691695,1.8168606166999004,-0.24,0.41,-0.29,0.25,0.33,0.90,
53164.9,48.634971985187775,4.667255612048922,1.8317942086011818,-0.24,0.40,-0.31,0.24,0.32,0.91,
53164.9,48.66226772356586,4.664481918342793,1.8341975846538543,-0.24,0.38,-0.33,0.22,0.32,0.92,
53165.0,48.787359018499856,4.727693907708882,1.8388163769793946,-0.23,0.40,-0.32,0.18,0.35,0.96,
53165.0,49.349610940715635,4.728984095452677,1.8373688722504429,-0.22,0.42,-0.33,0.18,0.35,0.96,
53165.0,48.022504099640614,4.749887565121629,1.830459078949412,-0.21,0.45,-0.35,0.19,0.34,0.96,
53165.1,46.75681554597148,4.767850733985787,1.822831560786441,-0.16,0.82,-0.48,0.11,0.29,0.92,
53165.1,47.796549038607374,4.794095750284096,1.8204712430450511,-0.16,0.80,-0.49,0.11,0.29,0.92,
53165.1,49.037998531750866,4.822813956683761,1.8178047383820228,-0.16,0.79,-0.51,0.10,0.29,0.92,
53165.2,47.102258969183204,4.836960272986802,1.7995262589502492,-0.10,0.46,-0.47,0.11,0.24,0.88,
53165.2,47.09448375340789,4.853360395018724,1.8026180546137003,-0.10,0.45,-0.48,0.11,0.24,0.87,
53165.2,47.227749258248586,4.858774445575681,1.7991250890435777,-0.09,0.44,-0.48,0.11,0.25,0.87,
53165.3,46.16714307816762,4.858135082108872,1.8124903056556174,-0.05,0.67,-0.59,0.04,0.16,0.81,
53165.3,45.962961175276774,4.879255680746212,1.778540425197089,-0.04,0.67,-0.59,0.03,0.16,0.82,
53165.3,46.08631684133589,4.8926199661028535,1.7864094200167087,-0.03,0.66,-0.60,0.02,0.16,0.81,
53165.4,46.679798628528815,4.955887259692918,1.756960557073228,-0.11,0.66,-0.60,-0.04,0.19,0.84,
53165.4,46.48700786241248,4.930457469983972,1.8103515709306826,-0.11,0.67,-0.60,-0.05,0.18,0.85,
53165.4,46.470749940150526,4.925421197481543,1.8206398089979137,-0.11,0.67,-0.59,-0.05,0.18,0.86,
53165.5,46.25700055126791,4.982957772307465,1.7736680793176032,-0.10,0.48,-0.55,-0.15,0.14,0.85,
53165.5,46.21922327343894,5.014759133218472,1.7811313843955956,-0.10,0.46,-0.54,-0.15,0.13,0.84,
53165.5,46.131496832424595,5.027479976730981,1.7815373927101452,-0.09,0.43,-0.53,-0.15,0.14,0.85,
53165.6,45.459153093739,5.014525875772755,1.7582126775809164,-0.08,0.97,-0.53,-0.16,0.12,0.80,
53165.6,46.132137388159244,5.027371094424918,1.758755655154693,-0.08,0.97,-0.53,-0.17,0.12,0.80,
53165.6,46.997996765819714,5.0433186166120345,1.7593666952357816,-0.08,0.95,-0.54,-0.17,0.12,0.80,
53165.7,46.41418425438499,5.102256855424226,1.7556269316246185,0.01,0.08,-0.43,-0.24,0.15,0.88,
53165.7,45.63823397109051,5.099203374757727,1.7688534865670666,0.01,0.03,-0.39,-0.23,0.15,0.89,
53165.7,45.96309062715431,5.1066512342950805,1.766104399648637,0.01,-0.00,-0.35,-0.22,0.15,0.89,
53165.8,45.012394959610845,5.1137815816157834,1.7515065458826822,0.00,0.58,-0.40,-0.31,0.09,0.87,
53165.8,44.959175926611465,5.1128297574880355,1.7485581233430856,0.02,0.61,-0.40,-0.32,0.08,0.87,
53165.8,45.05813356098985,5.131435922487734,1.7373511403143456,0.03,0.63,-0.39,-0.33,0.08,0.87,
53165.9,45.463076226757906,5.171174551889063,1.702270158255824,0.13,-0.00,-0.18,-0.40,0.04,0.82,
53165.9,45.442417409288424,5.1670197905541535,1.6872503661884821,0.12,-0.07,-0.17,-0.39,0.04,0.81,
53165.9,45.44674465789602,5.166033951816448,1.6836953470099252,0.11,-0.15,-0.16,-0.39,0.06,0.82,
53166.0,46.579907685610536,5.1400571678893225,1.710798377817673,-0.01,-0.33,0.15,-0.25,0.15,0.86,
53166.0,45.83121316308352,5.1291406555629475,1.690212726580322,-0.00,-0.28,0.14,-0.26,0.14,0.87,
53166.0,46.09112170472748,5.142823285663906,1.708568403216989,0.00,-0.25,0.12,-0.27,0.13,0.86,
53166.1,46.45543886349584,5.118246565710468,1.6704111353719762,0.08,-0.29,0.15,-0.27,0.16,0.87,
53166.1,46.77867997282523,5.123372749067997,1.6682168855493098,0.09,-0.31,0.17,-0.26,0.15,0.86,
53166.1,47.24291375433992,5.130570133935277,1.6651301962853238,0.10,-0.32,0.18,-0.26,0.16,0.88,
53166.2,47.71704726824576,5.12476330090424,1.6528296679210401,0.14,-0.30,0.47,-0.20,0.24,0.89,
53166.2,47.51893412104274,5.072715473863413,1.6434629003021655,0.14,-0.29,0.48,-0.21,0.24,0.88,
53166.2,47.83677351159879,5.073906357501012,1.6392071282282208,0.14,-0.28,0.48,-0.21,0.25,0.86,
53166.3,49.7533285318681,5.033566541910953,1.6287142766100489,0.15,-1.04,0.33,-0.26,0.22,0.77,
53166.3,49.78997991564166,5.02962388780488,1.6234416709310635,0.14,-1.16,0.34,-0.23,0.24,0.77,
53166.3,48.45702529045711,5.042775802658738,1.6420537211381778,0.14,-1.28,0.35,-0.21,0.26,0.78,
53166.4,49.44278511572745,5.040439271446603,1.6712833283435462,-0.05,-1.31,0.12,-0.03,0.29,0.92,
53166.4,51.34415253950541,5.013618182525391,1.6546431193360347,-0.05,-1.27,0.13,-0.02,0.29,0.95,
53166.4,51.867569829325916,5.006735726061246,1.6503131609486887,-0.05,-1.21,0.14,-0.01,0.30,0.96,
53166.5,50.47836071030834,4.970916819152785,1.654494193653638,-0.13,-0.28,0.04,0.05,0.24,0.90,
53166.5,51.41787529643752,4.964132928004819,1.6476936220873373,-0.13,-0.30,0.05,0.05,0.22,0.91,
53166.5,50.84328274216762,4.989307798766371,1.6367328374623176,-0.13,-0.32,0.06,0.04,0.22,0.92,
53166.6,50.29527214361207,4.972476915957641,1.6623842069960861,-0.00,-1.06,0.24,0.11,0.18,0.93,
53166.6,51.18905156378656,4.982957945429289,1.6578388485545954,0.01,-1.14,0.25,0.13,0.17,0.94,
53166.6,50.92561830748843,4.9816679164256445,1.6634165251536088,0.02,-1.20,0.28,0.16,0.17,0.94,
53166.7,52.57989159365013,4.949616220596608,1.6822864175837873,0.08,-0.47,-0.01,0.06,0.23,0.83,
53166.7,51.83659325225762,4.960105035201623,1.7023569718653253,0.10,-0.54,-0.01,0.06,0.23,0.84,
53166.7,51.790633323024736,4.951976350274938,1.7106593205682445,0.13,-0.60,-0.01,0.07,0.23,0.86,
53166.8,52.18305088819549,4.920839670638226,1.6918204022601473,0.20,-1.20,0.39,0.31,0.24,0.90,
53166.8,52.000125961385905,4.939304422719098,1.7192249909219164,0.20,-1.13,0.38,0.36,0.23,0.89,
53166.8,51.976758267517994,4.943200940787357,1.7247414327065311,0.18,-1.05,0.35,0.41,0.23,0.89,
53166.9,52.44149978785885,4.866530321013185,1.7041007863039612,-0.05,0.32,0.19,0.42,0.27,0.96,
53166.9,51.8382329945765,4.883878848744952,1.71053005065029,-0.06,0.43,0.17,0.41,0.27,0.94,
53166.9,51.658355568097605,4.889496579704801,1.712583980669743,-0.07,0.55,0.16,0.41,0.29,0.93,
53167.0,50.81751174546035,4.8997809661623215,1.7282822084242195,-0.30,0.31,-0.06,0.26,0.26,0.90,
53167.0,51.53277500775599,4.86947227166337,1.7447662741966277,-0.32,0.29,-0.04,0.27,0.27,0.90,
53167.0,52.54187472863906,4.830993593196566,1.7651977326396178,-0.33,0.27,-0.02,0.28,0.27,0.91,
53167.1,50.55406412940506,4.862876049805543,1.8004877340618979,-0.47,0.59,0.05,0.32,0.21,0.95,
53167.1,49.4510636892676,4.850372103060334,1.8088263561512903,-0.48,0.65,0.04,0.31,0.21,0.95,
53167.1,48.907072085742364,4.853599693298408,1.8203784410520283,-0.49,0.72,0.03,0.30,0.20,0.94,
53167.2,48.76088391323521,4.890089150689364,1.9023006325151721,-0.53,0.89,-0.02,0.08,0.13,0.94,
53167.2,48.976293244793446,4.890089150689364,1.9148500941167828,-0.52,0.89,-0.00,0.08,0.12,0.94,
53167.2,48.88945694114427,4.895143110571995,1.9196188529264504,-0.51,0.88,0.01,0.08,0.11,0.95,
53167.3,47.41677867590754,4.898439226774508,1.9674794131817699,-0.49,1.52,-0.06,-0.01,0.07,0.93,
53167.3,47.376988084934226,4.899787114973667,1.9648577015904003,-0.49,1.54,-0.06,-0.03,0.06,0.91,
53167.3,47.783487733734965,4.910466389303865,2.0151291729775074,-0.48,1.55,-0.06,-0.04,0.05,0.91,
53167.4,46.825623327404834,4.946732788017372,2.0080863931738384,-0.50,1.13,-0.05,-0.17,0.02,0.92,
53167.4,47.66141626095473,4.953008769334466,2.0242693886128285,-0.51,1.17,-0.05,-0.18,0.01,0.91,
53167.4,47.64174010256132,4.981020121810595,2.027274863650538,-0.52,1.19,-0.05,-0.19,0.00,0.91,
53167.5,47.36962001114216,5.036458674784554,2.039067375866841,-0.54,1.19,-0.06,-0.27,-0.05,0.94,
53167.5,47.445236852607245,5.0354139924465215,2.046305226687825,-0.54,1.22,-0.05,-0.28,-0.05,0.92,
53167.5,47.56429858622957,5.033913953914416,2.056869052284635,-0.54,1.24,-0.04,-0.28,-0.05,0.91,
53167.6,45.195139119157496,5.128287495009301,2.0678310843265084,-0.59,1.45,-0.02,-0.37,-0.10,0.81,
53167.6,47.08439550424323,5.11414421086816,2.0461903232671244,-0.59,1.46,-0.01,-0.38,-0.09,0.79,
53167.6,46.82071550072682,5.119631759923779,2.059948307817969,-0.60,1.46,0.01,-0.38,-0.10,0.78,
53167.7,46.87308929439151,5.197635487964923,2.0675863956759457,-0.65,1.14,0.10,-0.49,-0.13,0.68,
53167.7,46.80583403807692,5.199857148224085,2.0688518858927942,-0.65,1.12,0.11,-0.50,-0.13,0.68,
53167.7,46.583470244283006,5.166997773891861,2.0394240240263617,-0.65,1.10,0.12,-0.51,-0.12,0.68,
53167.8,47.83302415695667,5.280215402384869,2.1019794530185356,-0.50,1.12,0.09,-0.64,-0.17,0.62,
53167.8,47.49119181490395,5.294751788753393,2.08673855352617,-0.48,1.12,0.09,-0.65,-0.17,0.62,
53167.8,47.40917843624798,5.2987140709114176,2.082632092724891,-0.46,1.10,0.10,-0.65,-0.18,0.62,
53167.9,47.090857923805125,5.306725206438281,2.038254094057767,-0.16,0.63,0.07,-0.69,-0.18,0.49,
53167.9,46.42421889488287,5.322778404421556,2.041161372031871,-0.16,0.59,0.06,-0.69,-0.18,0.48,
53167.9,45.861319213472264,5.358598108161473,2.053556456256004,-0.15,0.54,0.06,-0.70,-0.18,0.48,
53168.0,46.646268875441685,5.351714950801026,2.059024906014896,-0.01,-0.17,0.02,-0.68,-0.18,0.50,
53168.0,46.68074977975397,5.352707536512831,2.0475097662354345,0.00,-0.21,0.02,-0.68,-0.18,0.50,
53168.0,46.7478031569399,5.35421984496641,2.0297557666566197,0.02,-0.26,0.02,-0.68,-0.17,0.50,
53168.1,46.286899874586545,5.324703937140916,2.0658517527071147,0.11,-0.43,-0.08,-0.64,-0.17,0.58,
53168.1,47.218101401898835,5.314395533959491,2.0366572419165956,0.12,-0.47,-0.08,-0.64,-0.17,0.58,
53168.1,47.06696612274897,5.321698960824092,2.0550036517291073,0.12,-0.52,-0.08,-0.64,-0.16,0.59,
53168.2,46.76980756855858,5.312278705904657,2.090328552741822,0.26,-1.28,-0.25,-0.57,-0.18,0.62,
53168.2,46.666532975998976,5.312793305220173,2.0915947357654256,0.27,-1.30,-0.26,-0.56,-0.17,0.64,
53168.2,46.41962192866288,5.259159110274679,2.1156761195610967,0.28,-1.32,-0.27,-0.55,-0.17,0.64,
53168.3,47.21440775864926,5.2881108977390445,2.113647766359372,0.50,-1.44,-0.37,-0.42,-0.15,0.74,
53168.3,46.63116768857499,5.2211737413962105,2.1212110318984863,0.52,-1.42,-0.38,-0.41,-0.14,0.75,
53168.3,46.4893944894962,5.201350498281748,2.1230835637292333,0.54,-1.39,-0.39,-0.41,-0.13,0.76,
53168.4,47.02953540063945,5.238717732483254,2.107834553628397,0.77,-1.47,-0.38,-0.31,-0.12,0.83,
